DateTime,ID,Accel_X,Accel_Y,Accel_Z,Gyro_X,Gyro_Y,Gyro_Z,Sensor_Timestamp
2025-07-14T17:24:14.073,4,0.61,-0.2,9.28,-0.05,-0.0,-0.01,4692
2025-07-14T17:24:14.078,4,0.6,-0.23,9.28,-0.05,-0.0,-0.01,4716
2025-07-14T17:24:14.098,4,0.59,-0.22,9.29,-0.05,-0.0,-0.01,4728
2025-07-14T17:24:14.108,4,0.58,-0.23,9.27,-0.05,-0.0,-0.01,4740
2025-07-14T17:24:14.118,4,0.55,-0.21,9.25,-0.05,-0.0,-0.01,4752
2025-07-14T17:24:14.128,4,0.56,-0.2,9.35,-0.05,-0.0,-0.01,4764
2025-07-14T17:24:14.138,4,0.59,-0.21,9.3,-0.05,-0.0,-0.01,4776
2025-07-14T17:24:14.158,4,0.59,-0.2,9.27,-0.05,-0.0,-0.01,4788
2025-07-14T17:24:14.168,4,0.59,-0.18,9.3,-0.05,-0.0,-0.01,4800
2025-07-14T17:24:14.178,4,0.61,-0.19,9.32,-0.05,-0.0,-0.01,4812
2025-07-14T17:24:14.188,4,0.6,-0.22,9.29,-0.05,-0.0,-0.01,4824
2025-07-14T17:24:14.198,4,0.6,-0.22,9.26,-0.05,-0.0,-0.01,4836
2025-07-14T17:24:14.218,4,0.58,-0.23,9.26,-0.05,-0.0,-0.01,4848
2025-07-14T17:24:14.228,4,0.61,-0.22,9.3,-0.05,-0.0,-0.01,4860
2025-07-14T17:24:14.238,4,0.61,-0.21,9.26,-0.05,-0.0,-0.01,4872
2025-07-14T17:24:14.248,4,0.61,-0.21,9.27,-0.05,-0.0,-0.01,4884
2025-07-14T17:24:14.258,4,0.6,-0.22,9.24,-0.05,-0.0,-0.01,4896
2025-07-14T17:24:14.278,4,0.6,-0.24,9.29,-0.05,-0.0,-0.01,4908
2025-07-14T17:24:14.288,4,0.59,-0.2,9.27,-0.05,-0.0,-0.01,4920
2025-07-14T17:24:14.298,4,0.57,-0.18,9.3,-0.05,-0.0,-0.01,4932
2025-07-14T17:24:14.308,4,0.57,-0.19,9.29,-0.05,-0.0,-0.01,4944
2025-07-14T17:24:14.318,4,0.58,-0.21,9.31,-0.05,-0.0,-0.01,4956
2025-07-14T17:24:14.338,4,0.59,-0.22,9.31,-0.05,-0.0,-0.01,4968
2025-07-14T17:24:14.348,4,0.6,-0.22,9.27,-0.05,-0.0,-0.01,4980
2025-07-14T17:24:14.358,4,0.61,-0.21,9.28,-0.05,-0.0,-0.01,4992
2025-07-14T17:24:14.368,4,0.63,-0.21,9.26,-0.05,-0.0,-0.01,5004
2025-07-14T17:24:14.378,4,0.61,-0.2,9.27,-0.05,-0.0,-0.01,5016
2025-07-14T17:24:14.398,4,0.61,-0.21,9.28,-0.05,-0.0,-0.01,5028
2025-07-14T17:24:14.408,4,0.6,-0.2,9.3,-0.05,-0.0,-0.01,5040
2025-07-14T17:24:14.418,4,0.6,-0.21,9.3,-0.05,-0.0,-0.01,5052
2025-07-14T17:24:14.428,4,0.57,-0.22,9.28,-0.05,-0.0,-0.01,5064
2025-07-14T17:24:14.438,4,0.58,-0.2,9.26,-0.05,-0.0,-0.01,5076
2025-07-14T17:24:14.458,4,0.61,-0.22,9.27,-0.05,-0.0,-0.01,5088
2025-07-14T17:24:14.468,4,0.61,-0.23,9.26,-0.05,-0.0,-0.01,5100
2025-07-14T17:24:14.478,4,0.62,-0.22,9.28,-0.05,-0.0,-0.01,5112
2025-07-14T17:24:14.488,4,0.59,-0.21,9.27,-0.05,-0.0,-0.01,5124
2025-07-14T17:24:14.498,4,0.58,-0.2,9.28,-0.05,-0.0,-0.01,5136
2025-07-14T17:24:14.518,4,0.6,-0.2,9.28,-0.05,-0.0,-0.01,5148
2025-07-14T17:24:14.528,4,0.58,-0.21,9.28,-0.05,-0.0,-0.01,5160
2025-07-14T17:24:14.538,4,0.58,-0.21,9.28,-0.05,-0.0,-0.01,5172
2025-07-14T17:24:14.548,4,0.59,-0.22,9.26,-0.05,-0.0,-0.01,5184
2025-07-14T17:24:14.558,4,0.59,-0.23,9.28,-0.04,-0.0,-0.01,5196
2025-07-14T17:24:14.578,4,0.58,-0.23,9.29,-0.05,-0.0,-0.01,5208
2025-07-14T17:24:14.588,4,0.59,-0.21,9.28,-0.05,-0.0,-0.01,5220
2025-07-14T17:24:14.598,4,0.57,-0.21,9.31,-0.05,-0.0,-0.01,5232
2025-07-14T17:24:14.608,4,0.58,-0.2,9.28,-0.05,-0.0,-0.01,5244
2025-07-14T17:24:14.618,4,0.58,-0.19,9.31,-0.05,-0.0,-0.01,5256
2025-07-14T17:24:14.638,4,0.59,-0.19,9.27,-0.05,-0.0,-0.01,5268
2025-07-14T17:24:14.648,4,0.59,-0.2,9.27,-0.05,-0.0,-0.01,5280
2025-07-14T17:24:14.658,4,0.59,-0.21,9.29,-0.05,-0.0,-0.01,5292
2025-07-14T17:24:14.668,4,0.58,-0.2,9.29,-0.05,-0.0,-0.01,5304
2025-07-14T17:24:14.678,4,0.59,-0.21,9.29,-0.05,-0.0,-0.01,5316
2025-07-14T17:24:14.698,4,0.59,-0.23,9.27,-0.05,-0.0,-0.01,5328
2025-07-14T17:24:14.708,4,0.59,-0.21,9.27,-0.05,-0.0,-0.01,5340
2025-07-14T17:24:14.718,4,0.58,-0.21,9.28,-0.05,-0.0,-0.01,5352
2025-07-14T17:24:14.728,4,0.58,-0.2,9.29,-0.05,-0.0,-0.01,5364
2025-07-14T17:24:14.738,4,0.59,-0.2,9.3,-0.05,-0.0,-0.01,5376
2025-07-14T17:24:14.758,4,0.58,-0.2,9.27,-0.05,-0.0,-0.01,5388
2025-07-14T17:24:14.768,4,0.59,-0.22,9.26,-0.05,-0.0,-0.01,5400
2025-07-14T17:24:14.778,4,0.61,-0.22,9.25,-0.05,-0.0,-0.01,5412
2025-07-14T17:24:14.788,4,0.6,-0.21,9.26,-0.05,-0.0,-0.01,5424
2025-07-14T17:24:14.798,4,0.61,-0.23,9.29,-0.05,-0.0,-0.01,5436
2025-07-14T17:24:14.818,4,0.61,-0.23,9.28,-0.05,-0.0,-0.01,5448
2025-07-14T17:24:14.828,4,0.59,-0.21,9.33,-0.05,-0.0,-0.01,5460
2025-07-14T17:24:14.838,4,0.58,-0.21,9.27,-0.05,-0.0,-0.01,5472
2025-07-14T17:24:14.848,4,0.59,-0.19,9.26,-0.05,-0.0,-0.01,5484
2025-07-14T17:24:14.858,4,0.59,-0.21,9.3,-0.05,-0.0,-0.01,5496
2025-07-14T17:24:14.878,4,0.58,-0.2,9.27,-0.05,-0.0,-0.01,5508
2025-07-14T17:24:14.888,4,0.59,-0.2,9.31,-0.05,-0.0,-0.01,5520
2025-07-14T17:24:14.898,4,0.6,-0.21,9.29,-0.05,-0.0,-0.01,5532
2025-07-14T17:24:14.908,4,0.61,-0.21,9.26,-0.05,-0.0,-0.01,5544
2025-07-14T17:24:14.918,4,0.59,-0.22,9.27,-0.05,-0.0,-0.01,5556
2025-07-14T17:24:14.938,4,0.59,-0.21,9.3,-0.05,-0.0,-0.01,5568
2025-07-14T17:24:14.948,4,0.61,-0.2,9.31,-0.05,-0.0,-0.01,5580
2025-07-14T17:24:14.958,4,0.59,-0.2,9.29,-0.05,-0.0,-0.01,5592
2025-07-14T17:24:14.968,4,0.59,-0.2,9.28,-0.05,-0.0,-0.01,5604
2025-07-14T17:24:14.978,4,0.59,-0.22,9.26,-0.05,-0.0,-0.01,5616
2025-07-14T17:24:14.998,4,0.59,-0.22,9.3,-0.05,-0.0,-0.01,5628
2025-07-14T17:24:15.008,4,0.59,-0.2,9.3,-0.05,-0.0,-0.01,5640
2025-07-14T17:24:15.018,4,0.6,-0.21,9.3,-0.05,-0.0,-0.01,5652
2025-07-14T17:24:15.028,4,0.6,-0.2,9.29,-0.05,-0.0,-0.01,5664
2025-07-14T17:24:15.038,4,0.58,-0.22,9.26,-0.05,-0.0,-0.01,5676
2025-07-14T17:24:15.058,4,0.6,-0.22,9.31,-0.05,-0.0,-0.01,5688
2025-07-14T17:24:15.068,4,0.6,-0.2,9.3,-0.05,-0.0,-0.01,5700
2025-07-14T17:24:15.078,4,0.59,-0.21,9.26,-0.05,-0.0,-0.01,5712
2025-07-14T17:24:15.088,4,0.58,-0.21,9.29,-0.05,-0.0,-0.01,5724
2025-07-14T17:24:15.098,4,0.58,-0.21,9.31,-0.05,-0.0,-0.01,5736
2025-07-14T17:24:15.118,4,0.59,-0.2,9.3,-0.05,-0.0,-0.01,5748
2025-07-14T17:24:15.128,4,0.6,-0.21,9.28,-0.05,-0.0,-0.01,5760
2025-07-14T17:24:15.138,4,0.6,-0.23,9.3,-0.05,-0.0,-0.01,5772
2025-07-14T17:24:15.148,4,0.6,-0.21,9.31,-0.05,-0.0,-0.01,5784
2025-07-14T17:24:15.158,4,0.6,-0.21,9.31,-0.05,-0.0,-0.01,5796
2025-07-14T17:24:15.178,4,0.59,-0.23,9.28,-0.05,-0.0,-0.01,5808
2025-07-14T17:24:15.188,4,0.58,-0.2,9.29,-0.05,-0.0,-0.01,5820
2025-07-14T17:24:15.198,4,0.58,-0.19,9.3,-0.05,-0.0,-0.01,5832
2025-07-14T17:24:15.208,4,0.58,-0.22,9.28,-0.05,-0.0,-0.01,5844
2025-07-14T17:24:15.218,4,0.59,-0.22,9.27,-0.05,-0.0,-0.01,5856
2025-07-14T17:24:15.238,4,0.58,-0.2,9.29,-0.05,-0.0,-0.01,5868
2025-07-14T17:24:15.248,4,0.6,-0.21,9.27,-0.05,-0.0,-0.01,5880
2025-07-14T17:24:15.258,4,0.59,-0.23,9.26,-0.05,-0.0,-0.01,5892
2025-07-14T17:24:15.268,4,0.59,-0.21,9.28,-0.05,-0.0,-0.01,5904
2025-07-14T17:24:15.278,4,0.6,-0.2,9.26,-0.05,-0.0,-0.01,5916
2025-07-14T17:24:15.298,4,0.6,-0.21,9.3,-0.05,-0.0,-0.01,5928
2025-07-14T17:24:15.308,4,0.59,-0.19,9.32,-0.05,-0.0,-0.01,5940
2025-07-14T17:24:15.318,4,0.59,-0.21,9.28,-0.05,-0.0,-0.01,5952
2025-07-14T17:24:15.328,4,0.6,-0.22,9.29,-0.05,-0.01,-0.01,5964
2025-07-14T17:24:15.338,4,0.59,-0.23,9.3,-0.05,-0.0,-0.01,5976
2025-07-14T17:24:15.358,4,0.59,-0.22,9.28,-0.05,-0.0,-0.01,5988
2025-07-14T17:24:15.368,4,0.6,-0.22,9.29,-0.05,-0.0,-0.01,6000
2025-07-14T17:24:15.378,4,0.61,-0.22,9.29,-0.05,-0.0,-0.01,6012
2025-07-14T17:24:15.388,4,0.58,-0.21,9.3,-0.05,-0.0,-0.01,6024
2025-07-14T17:24:15.398,4,0.59,-0.2,9.27,-0.05,-0.0,-0.01,6036
2025-07-14T17:24:15.418,4,0.59,-0.19,9.29,-0.05,-0.0,-0.01,6048
2025-07-14T17:24:15.428,4,0.59,-0.19,9.29,-0.05,-0.0,-0.01,6060
2025-07-14T17:24:15.438,4,0.59,-0.23,9.25,-0.04,-0.0,-0.01,6072
2025-07-14T17:24:15.448,4,0.61,-0.22,9.27,-0.05,-0.0,-0.01,6084
2025-07-14T17:24:15.458,4,0.61,-0.23,9.3,-0.05,-0.0,-0.01,6096
2025-07-14T17:24:15.478,4,0.6,-0.23,9.29,-0.05,-0.0,-0.01,6108
2025-07-14T17:24:15.488,4,0.6,-0.22,9.27,-0.05,-0.0,-0.01,6120
2025-07-14T17:24:15.498,4,0.59,-0.2,9.31,-0.05,-0.0,-0.01,6132
2025-07-14T17:24:15.508,4,0.61,-0.21,9.3,-0.05,-0.0,-0.01,6144
2025-07-14T17:24:15.518,4,0.6,-0.2,9.32,-0.05,-0.0,-0.01,6156
2025-07-14T17:24:15.538,4,0.6,-0.2,9.28,-0.05,-0.0,-0.01,6168
2025-07-14T17:24:15.548,4,0.59,-0.19,9.26,-0.05,-0.0,-0.01,6180
2025-07-14T17:24:15.558,4,0.59,-0.21,9.31,-0.05,-0.0,-0.01,6192
2025-07-14T17:24:15.568,4,0.57,-0.22,9.29,-0.05,-0.0,-0.01,6204
2025-07-14T17:24:15.578,4,0.59,-0.22,9.31,-0.05,-0.0,-0.01,6216
2025-07-14T17:24:15.599,4,0.57,-0.24,9.29,-0.05,-0.0,-0.01,6228
2025-07-14T17:24:15.608,4,0.58,-0.23,9.31,-0.05,-0.0,-0.01,6240
2025-07-14T17:24:15.618,4,0.58,-0.23,9.29,-0.05,-0.0,-0.01,6252
2025-07-14T17:24:15.628,4,0.61,-0.21,9.29,-0.05,-0.0,-0.01,6264
2025-07-14T17:24:15.639,4,0.59,-0.2,9.27,-0.05,-0.0,-0.01,6276
2025-07-14T17:24:15.659,4,0.61,-0.2,9.25,-0.05,-0.0,-0.01,6288
2025-07-14T17:24:15.668,4,0.61,-0.21,9.25,-0.05,-0.0,-0.01,6300
2025-07-14T17:24:15.678,4,0.59,-0.21,9.29,-0.05,-0.0,-0.01,6312
2025-07-14T17:24:15.688,4,0.59,-0.23,9.3,-0.05,-0.0,-0.01,6324
2025-07-14T17:24:15.698,4,0.59,-0.23,9.28,-0.05,-0.0,-0.01,6336
2025-07-14T17:24:15.718,4,0.57,-0.22,9.3,-0.05,-0.0,-0.01,6348
2025-07-14T17:24:15.728,4,0.57,-0.21,9.28,-0.05,-0.0,-0.01,6360
2025-07-14T17:24:15.738,4,0.58,-0.21,9.28,-0.05,-0.0,-0.01,6372
2025-07-14T17:24:15.748,4,0.61,-0.21,9.31,-0.05,-0.0,-0.01,6384
2025-07-14T17:24:15.758,4,0.6,-0.21,9.29,-0.05,-0.0,-0.01,6396
2025-07-14T17:24:15.778,4,0.59,-0.2,9.25,-0.05,-0.0,-0.01,6408
2025-07-14T17:24:15.788,4,0.61,-0.2,9.26,-0.05,-0.0,-0.01,6420
2025-07-14T17:24:15.798,4,0.6,-0.22,9.32,-0.05,-0.0,-0.01,6432
2025-07-14T17:24:15.808,4,0.6,-0.23,9.25,-0.05,-0.0,-0.01,6444
2025-07-14T17:24:15.818,4,0.56,-0.23,9.29,-0.05,-0.0,-0.01,6456
2025-07-14T17:24:15.838,4,0.58,-0.2,9.29,-0.05,-0.0,-0.01,6468
2025-07-14T17:24:15.848,4,0.57,-0.2,9.28,-0.05,-0.0,-0.01,6480
2025-07-14T17:24:15.858,4,0.58,-0.19,9.29,-0.05,-0.0,-0.01,6492
2025-07-14T17:24:15.868,4,0.57,-0.18,9.3,-0.05,-0.0,-0.01,6504
2025-07-14T17:24:15.878,4,0.6,-0.22,9.29,-0.05,-0.01,-0.01,6516
2025-07-14T17:24:15.898,4,0.58,-0.23,9.27,-0.05,-0.01,-0.01,6528
2025-07-14T17:24:15.908,4,0.61,-0.25,9.3,-0.05,-0.0,-0.01,6540
2025-07-14T17:24:15.918,4,0.59,-0.25,9.28,-0.05,-0.01,-0.01,6552
2025-07-14T17:24:15.928,4,0.58,-0.23,9.28,-0.05,-0.01,-0.01,6564
2025-07-14T17:24:15.938,4,0.58,-0.21,9.29,-0.05,-0.01,-0.01,6576
2025-07-14T17:24:15.958,4,0.57,-0.19,9.32,-0.05,-0.01,-0.01,6588
2025-07-14T17:24:15.968,4,0.57,-0.2,9.29,-0.05,-0.01,-0.01,6600
2025-07-14T17:24:15.978,4,0.57,-0.22,9.33,-0.05,-0.01,-0.01,6612
2025-07-14T17:24:15.988,4,0.61,-0.2,9.29,-0.05,-0.01,-0.01,6624
2025-07-14T17:24:15.998,4,0.65,-0.22,9.31,-0.04,0.01,-0.01,6636
2025-07-14T17:24:16.018,4,0.59,-0.24,9.32,-0.05,-0.0,-0.01,6648
2025-07-14T17:24:16.028,4,0.55,-0.26,9.32,-0.05,-0.01,-0.01,6660
2025-07-14T17:24:16.038,4,0.61,-0.22,9.24,-0.04,-0.01,-0.01,6672
2025-07-14T17:24:16.048,4,0.61,-0.19,9.24,-0.05,-0.01,-0.01,6684
2025-07-14T17:24:16.058,4,0.6,-0.18,9.28,-0.04,-0.01,-0.01,6696
2025-07-14T17:24:16.078,4,0.62,-0.19,9.29,-0.04,-0.01,-0.01,6708
2025-07-14T17:24:16.088,4,0.61,-0.2,9.26,-0.04,-0.0,-0.01,6720
2025-07-14T17:24:16.098,4,0.63,-0.21,9.28,-0.04,-0.01,-0.01,6732
2025-07-14T17:24:16.108,4,0.6,-0.21,9.29,-0.05,-0.01,-0.01,6744
2025-07-14T17:24:16.118,4,0.63,-0.24,9.28,-0.04,-0.0,-0.01,6756
2025-07-14T17:24:16.138,4,0.54,-0.26,9.29,-0.04,-0.0,-0.01,6768
2025-07-14T17:24:16.148,4,0.59,-0.25,9.28,-0.05,0.0,-0.01,6780
2025-07-14T17:24:16.158,4,0.58,-0.21,9.31,-0.05,-0.01,-0.01,6792
2025-07-14T17:24:16.168,4,0.57,-0.17,9.25,-0.05,-0.0,-0.01,6804
2025-07-14T17:24:16.178,4,0.59,-0.16,9.26,-0.05,-0.0,-0.01,6816
2025-07-14T17:24:16.198,4,0.63,-0.19,9.3,-0.05,-0.0,-0.01,6828
2025-07-14T17:24:16.208,4,0.64,-0.23,9.25,-0.05,-0.0,-0.01,6840
2025-07-14T17:24:16.218,4,0.57,-0.24,9.27,-0.05,-0.0,-0.01,6852
2025-07-14T17:24:16.228,4,0.56,-0.22,9.28,-0.05,-0.0,-0.01,6864
2025-07-14T17:24:16.238,4,0.57,-0.22,9.31,-0.05,-0.0,-0.01,6876
2025-07-14T17:24:16.258,4,0.59,-0.23,9.28,-0.05,-0.0,-0.01,6888
2025-07-14T17:24:16.268,4,0.57,-0.24,9.33,-0.05,-0.0,-0.01,6900
2025-07-14T17:24:16.278,4,0.59,-0.22,9.29,-0.05,-0.0,-0.01,6912
2025-07-14T17:24:16.288,4,0.59,-0.18,9.25,-0.05,-0.01,-0.01,6924
2025-07-14T17:24:16.298,4,0.57,-0.15,9.22,-0.05,-0.0,-0.01,6936
2025-07-14T17:24:16.318,4,0.6,-0.17,9.27,-0.05,-0.01,-0.01,6948
2025-07-14T17:24:16.328,4,0.62,-0.2,9.29,-0.05,-0.01,-0.01,6960
2025-07-14T17:24:16.338,4,0.6,-0.23,9.28,-0.05,-0.01,-0.01,6972
2025-07-14T17:24:16.348,4,0.61,-0.24,9.29,-0.05,-0.0,-0.01,6984
2025-07-14T17:24:16.358,4,0.58,-0.25,9.33,-0.05,-0.0,-0.01,6996
2025-07-14T17:24:16.378,4,0.59,-0.26,9.29,-0.05,-0.0,-0.01,7008
2025-07-14T17:24:16.388,4,0.6,-0.22,9.28,-0.05,-0.0,-0.01,7020
2025-07-14T17:24:16.398,4,0.6,-0.2,9.29,-0.05,-0.0,-0.01,7032
2025-07-14T17:24:16.408,4,0.61,-0.19,9.3,-0.05,-0.0,-0.01,7044
2025-07-14T17:24:16.418,4,0.6,-0.17,9.29,-0.05,-0.0,-0.01,7056
2025-07-14T17:24:16.438,4,0.61,-0.18,9.3,-0.05,-0.01,-0.01,7068
2025-07-14T17:24:16.448,4,0.59,-0.21,9.28,-0.05,-0.01,-0.01,7080
2025-07-14T17:24:16.458,4,0.59,-0.21,9.26,-0.05,-0.01,-0.01,7092
2025-07-14T17:24:16.468,4,0.6,-0.24,9.26,-0.05,-0.01,-0.01,7104
2025-07-14T17:24:16.478,4,0.62,-0.24,9.28,-0.05,-0.0,-0.01,7116
2025-07-14T17:24:16.498,4,0.59,-0.23,9.18,-0.04,-0.0,-0.01,7128
2025-07-14T17:24:16.508,4,0.59,-0.24,9.29,-0.05,-0.0,-0.01,7140
2025-07-14T17:24:16.518,4,0.59,-0.21,9.36,-0.05,-0.0,-0.01,7152
2025-07-14T17:24:16.528,4,0.58,-0.21,9.28,-0.05,-0.0,-0.01,7164
2025-07-14T17:24:16.538,4,0.56,-0.18,9.3,-0.05,-0.01,-0.01,7176
2025-07-14T17:24:16.558,4,0.55,-0.18,9.37,-0.05,-0.01,-0.01,7188
2025-07-14T17:24:16.568,4,0.57,-0.19,9.28,-0.05,-0.01,-0.01,7200
2025-07-14T17:24:16.578,4,0.62,-0.22,9.24,-0.05,-0.01,-0.01,7212
2025-07-14T17:24:16.588,4,0.64,-0.23,9.25,-0.05,-0.01,-0.01,7224
2025-07-14T17:24:16.598,4,0.66,-0.21,9.26,-0.05,-0.0,-0.01,7236
2025-07-14T17:24:16.618,4,0.64,-0.23,9.25,-0.05,-0.0,-0.01,7248
2025-07-14T17:24:16.628,4,0.61,-0.23,9.25,-0.05,-0.0,-0.01,7260
2025-07-14T17:24:16.638,4,0.58,-0.21,9.3,-0.05,-0.0,-0.01,7272
2025-07-14T17:24:16.648,4,0.56,-0.2,9.32,-0.04,-0.0,-0.01,7284
2025-07-14T17:24:16.658,4,0.55,-0.17,9.33,-0.05,-0.0,-0.01,7296
2025-07-14T17:24:16.678,4,0.56,-0.2,9.32,-0.05,-0.0,-0.01,7308
2025-07-14T17:24:16.688,4,0.6,-0.21,9.33,-0.05,-0.0,-0.01,7320
2025-07-14T17:24:16.698,4,0.61,-0.23,9.3,-0.05,-0.0,-0.01,7332
2025-07-14T17:24:16.708,4,0.64,-0.23,9.26,-0.05,-0.01,-0.01,7344
2025-07-14T17:24:16.718,4,0.61,-0.22,9.27,-0.05,-0.0,-0.01,7356
2025-07-14T17:24:16.738,4,0.62,-0.24,9.27,-0.05,-0.0,-0.01,7368
2025-07-14T17:24:16.748,4,0.59,-0.21,9.3,-0.05,-0.0,-0.01,7380
2025-07-14T17:24:16.758,4,0.57,-0.22,9.26,-0.05,-0.0,-0.01,7392
2025-07-14T17:24:16.768,4,0.56,-0.21,9.25,-0.05,-0.0,-0.01,7404
2025-07-14T17:24:16.778,4,0.56,-0.2,9.31,-0.05,-0.0,-0.01,7416
2025-07-14T17:24:16.798,4,0.59,-0.21,9.33,-0.05,-0.0,-0.01,7428
2025-07-14T17:24:16.808,4,0.61,-0.21,9.28,-0.04,-0.0,-0.01,7440
2025-07-14T17:24:16.818,4,0.64,-0.2,9.25,-0.04,-0.0,-0.01,7452
2025-07-14T17:24:16.828,4,0.65,-0.2,9.25,-0.04,-0.0,-0.01,7464
2025-07-14T17:24:16.838,4,0.63,-0.23,9.27,-0.04,-0.0,-0.01,7476
2025-07-14T17:24:16.858,4,0.61,-0.22,9.27,-0.04,0.0,-0.01,7488
2025-07-14T17:24:16.868,4,0.58,-0.21,9.28,-0.05,-0.0,-0.01,7500
2025-07-14T17:24:16.878,4,0.56,-0.18,9.31,-0.05,-0.0,-0.01,7512
2025-07-14T17:24:16.888,4,0.54,-0.2,9.3,-0.05,-0.0,-0.01,7524
2025-07-14T17:24:16.898,4,0.56,-0.23,9.26,-0.05,-0.0,-0.01,7536
2025-07-14T17:24:16.918,4,0.59,-0.25,9.3,-0.05,-0.0,-0.01,7548
2025-07-14T17:24:16.928,4,0.62,-0.23,9.32,-0.05,-0.0,-0.01,7560
2025-07-14T17:24:16.938,4,0.63,-0.22,9.25,-0.05,-0.0,-0.01,7572
2025-07-14T17:24:16.948,4,0.62,-0.18,9.27,-0.05,-0.0,-0.01,7584
2025-07-14T17:24:16.958,4,0.59,-0.19,9.27,-0.05,-0.0,-0.01,7596
2025-07-14T17:24:16.978,4,0.59,-0.2,9.26,-0.05,-0.0,-0.01,7608
2025-07-14T17:24:16.988,4,0.57,-0.17,9.31,-0.05,-0.0,-0.01,7620
2025-07-14T17:24:16.998,4,0.56,-0.2,9.29,-0.05,-0.0,-0.01,7632
2025-07-14T17:24:17.008,4,0.58,-0.2,9.27,-0.05,-0.0,-0.01,7644
2025-07-14T17:24:17.018,4,0.6,-0.24,9.26,-0.05,-0.0,-0.01,7656
2025-07-14T17:24:17.038,4,0.65,-0.24,9.01,-0.05,0.0,-0.01,7668
2025-07-14T17:24:17.048,4,0.65,-0.25,9.29,-0.05,0.01,-0.01,7680
2025-07-14T17:24:17.058,4,0.65,-0.16,9.59,-0.05,0.0,-0.01,7692
2025-07-14T17:24:17.068,4,0.6,-0.12,9.27,-0.05,-0.0,-0.01,7704
2025-07-14T17:24:17.078,4,0.52,-0.16,9.17,-0.05,-0.0,-0.01,7716
2025-07-14T17:24:17.098,4,0.5,-0.2,9.35,-0.05,-0.0,-0.01,7728
2025-07-14T17:24:17.108,4,0.51,-0.24,9.32,-0.05,-0.0,-0.01,7740
2025-07-14T17:24:17.118,4,0.59,-0.25,9.23,-0.05,-0.0,-0.01,7752
2025-07-14T17:24:17.128,4,0.68,-0.24,9.29,-0.05,0.0,-0.01,7764
2025-07-14T17:24:17.138,4,0.69,-0.24,9.23,-0.05,0.0,-0.01,7776
2025-07-14T17:24:17.158,4,0.69,-0.24,9.21,-0.05,0.01,-0.01,7788
2025-07-14T17:24:17.168,4,0.67,-0.22,9.25,-0.05,0.01,-0.01,7800
2025-07-14T17:24:17.178,4,0.6,-0.18,9.34,-0.05,0.01,-0.01,7812
2025-07-14T17:24:17.188,4,0.55,-0.14,9.38,-0.05,0.01,-0.01,7824
2025-07-14T17:24:17.198,4,0.48,-0.16,9.41,-0.05,0.0,-0.01,7836
2025-07-14T17:24:17.218,4,0.44,-0.22,9.37,-0.05,-0.0,-0.01,7848
2025-07-14T17:24:17.228,4,0.47,-0.22,9.25,-0.05,-0.0,-0.01,7860
2025-07-14T17:24:17.238,4,0.56,-0.23,9.25,-0.05,-0.0,-0.01,7872
2025-07-14T17:24:17.248,4,0.67,-0.25,9.25,-0.05,-0.0,-0.01,7884
2025-07-14T17:24:17.258,4,0.7,-0.26,9.16,-0.05,0.0,-0.01,7896
2025-07-14T17:24:17.278,4,0.7,-0.26,9.18,-0.05,0.01,-0.01,7908
2025-07-14T17:24:17.288,4,0.67,-0.22,9.25,-0.05,0.01,-0.01,7920
2025-07-14T17:24:17.298,4,0.59,-0.19,9.32,-0.05,0.01,-0.01,7932
2025-07-14T17:24:17.308,4,0.53,-0.19,9.38,-0.05,0.01,-0.01,7944
2025-07-14T17:24:17.318,4,0.43,-0.18,9.43,-0.05,0.0,-0.01,7956
2025-07-14T17:24:17.338,4,0.42,-0.21,9.38,-0.05,-0.0,-0.01,7968
2025-07-14T17:24:17.348,4,0.44,-0.21,9.38,-0.05,-0.01,-0.01,7980
2025-07-14T17:24:17.358,4,0.51,-0.21,9.28,-0.05,-0.01,-0.01,7992
2025-07-14T17:24:17.368,4,0.64,-0.21,9.25,-0.05,-0.01,-0.01,8004
2025-07-14T17:24:17.378,4,0.71,-0.21,9.24,-0.05,-0.01,-0.01,8016
2025-07-14T17:24:17.398,4,0.69,-0.24,9.23,-0.05,-0.01,-0.01,8028
2025-07-14T17:24:17.408,4,0.66,-0.24,9.19,-0.05,-0.0,-0.01,8040
2025-07-14T17:24:17.418,4,0.58,-0.21,9.26,-0.05,0.0,-0.01,8052
2025-07-14T17:24:17.428,4,0.52,-0.2,9.35,-0.05,0.0,-0.01,8064
2025-07-14T17:24:17.438,4,0.5,-0.19,9.36,-0.05,-0.0,-0.01,8076
2025-07-14T17:24:17.458,4,0.5,-0.17,9.36,-0.05,-0.01,-0.01,8088
2025-07-14T17:24:17.468,4,0.53,-0.18,9.3,-0.05,-0.01,-0.01,8100
2025-07-14T17:24:17.478,4,0.59,-0.2,9.28,-0.05,-0.01,-0.01,8112
2025-07-14T17:24:17.488,4,0.64,-0.22,9.29,-0.05,-0.01,-0.01,8124
2025-07-14T17:24:17.498,4,0.68,-0.25,9.25,-0.05,-0.01,-0.01,8136
2025-07-14T17:24:17.518,4,0.65,-0.23,9.24,-0.05,-0.0,-0.01,8148
2025-07-14T17:24:17.528,4,0.62,-0.25,9.24,-0.05,-0.0,-0.01,8160
2025-07-14T17:24:17.538,4,0.59,-0.22,9.32,-0.05,-0.0,-0.01,8172
2025-07-14T17:24:17.548,4,0.52,-0.21,9.33,-0.05,-0.0,-0.01,8184
2025-07-14T17:24:17.558,4,0.51,-0.19,9.33,-0.05,-0.0,-0.01,8196
2025-07-14T17:24:17.578,4,0.5,-0.19,9.33,-0.05,-0.01,-0.01,8208
2025-07-14T17:24:17.588,4,0.53,-0.19,9.27,-0.05,-0.01,-0.01,8220
2025-07-14T17:24:17.598,4,0.59,-0.23,9.28,-0.05,-0.01,-0.01,8232
2025-07-14T17:24:17.608,4,0.62,-0.25,9.28,-0.05,-0.0,-0.01,8244
2025-07-14T17:24:17.618,4,0.63,-0.25,9.24,-0.05,-0.0,-0.01,8256
2025-07-14T17:24:17.638,4,0.61,-0.24,9.24,-0.05,-0.0,-0.01,8268
2025-07-14T17:24:17.648,4,0.58,-0.24,9.28,-0.05,-0.0,-0.01,8280
2025-07-14T17:24:17.658,4,0.56,-0.2,9.29,-0.05,-0.0,-0.01,8292
2025-07-14T17:24:17.668,4,0.54,-0.19,9.31,-0.05,-0.0,-0.01,8304
2025-07-14T17:24:17.678,4,0.54,-0.17,9.31,-0.05,-0.0,-0.01,8316
2025-07-14T17:24:17.698,4,0.54,-0.19,9.27,-0.05,-0.0,-0.01,8328
2025-07-14T17:24:17.708,4,0.56,-0.22,9.29,-0.05,-0.0,-0.01,8340
2025-07-14T17:24:17.718,4,0.62,-0.22,9.23,-0.05,-0.0,-0.01,8352
2025-07-14T17:24:17.728,4,0.63,-0.24,9.26,-0.05,0.0,-0.01,8364
2025-07-14T17:24:17.738,4,0.61,-0.26,9.27,-0.05,0.0,-0.01,8376
2025-07-14T17:24:17.758,4,0.57,-0.25,9.26,-0.05,0.0,-0.01,8388
2025-07-14T17:24:17.768,4,0.56,-0.23,9.29,-0.05,0.0,-0.01,8400
2025-07-14T17:24:17.778,4,0.54,-0.22,9.32,-0.05,0.0,-0.01,8412
2025-07-14T17:24:17.788,4,0.53,-0.19,9.34,-0.05,0.0,-0.01,8424
2025-07-14T17:24:17.798,4,0.54,-0.17,9.34,-0.05,-0.0,-0.01,8436
2025-07-14T17:24:17.818,4,0.55,-0.19,9.33,-0.05,-0.0,-0.01,8448
2025-07-14T17:24:17.828,4,0.59,-0.23,9.33,-0.05,-0.01,-0.01,8460
2025-07-14T17:24:17.838,4,0.6,-0.25,9.32,-0.05,-0.01,-0.01,8472
2025-07-14T17:24:17.848,4,0.6,-0.28,9.29,-0.05,-0.01,-0.01,8484
2025-07-14T17:24:17.858,4,0.58,-0.26,9.28,-0.05,-0.01,-0.01,8496
2025-07-14T17:24:17.878,4,0.59,-0.24,9.26,-0.05,-0.01,-0.01,8508
2025-07-14T17:24:17.888,4,0.54,-0.24,9.29,-0.05,-0.01,-0.01,8520
2025-07-14T17:24:17.898,4,0.53,-0.21,9.3,-0.05,-0.01,-0.01,8532
2025-07-14T17:24:17.908,4,0.55,-0.18,9.28,-0.05,-0.01,-0.01,8544
2025-07-14T17:24:17.918,4,0.57,-0.19,9.27,-0.05,-0.01,-0.01,8556
2025-07-14T17:24:17.938,4,0.61,-0.19,9.29,-0.05,-0.01,-0.01,8568
2025-07-14T17:24:17.948,4,0.61,-0.2,9.27,-0.05,-0.01,-0.01,8580
2025-07-14T17:24:17.958,4,0.61,-0.22,9.27,-0.05,-0.0,-0.01,8592
2025-07-14T17:24:17.968,4,0.6,-0.25,9.25,-0.05,-0.0,-0.01,8604
2025-07-14T17:24:17.978,4,0.55,-0.25,9.25,-0.05,-0.0,-0.01,8616
2025-07-14T17:24:17.998,4,0.53,-0.24,9.28,-0.05,-0.0,-0.01,8628
2025-07-14T17:24:18.008,4,0.53,-0.24,9.28,-0.05,-0.0,-0.01,8640
2025-07-14T17:24:18.018,4,0.54,-0.22,9.28,-0.05,-0.0,-0.01,8652
2025-07-14T17:24:18.028,4,0.56,-0.2,9.28,-0.05,-0.0,-0.01,8664
2025-07-14T17:24:18.038,4,0.59,-0.18,9.27,-0.05,-0.01,-0.01,8676
2025-07-14T17:24:18.058,4,0.6,-0.19,9.26,-0.05,-0.0,-0.01,8688
2025-07-14T17:24:18.068,4,0.62,-0.21,9.28,-0.05,-0.0,-0.01,8700
2025-07-14T17:24:18.078,4,0.59,-0.22,9.27,-0.05,-0.0,-0.01,8712
2025-07-14T17:24:18.088,4,0.56,-0.22,9.3,-0.05,-0.0,-0.01,8724
2025-07-14T17:24:18.098,4,0.52,-0.22,9.31,-0.05,-0.0,-0.01,8736
2025-07-14T17:24:18.118,4,0.54,-0.23,9.29,-0.05,-0.0,-0.01,8748
2025-07-14T17:24:18.128,4,0.55,-0.22,9.29,-0.05,-0.01,-0.01,8760
2025-07-14T17:24:18.138,4,0.57,-0.2,9.3,-0.05,-0.01,-0.01,8772
2025-07-14T17:24:18.148,4,0.6,-0.2,9.27,-0.05,-0.0,-0.01,8784
2025-07-14T17:24:18.158,4,0.62,-0.2,9.26,-0.05,-0.0,-0.01,8796
2025-07-14T17:24:18.178,4,0.63,-0.23,9.29,-0.05,-0.0,-0.01,8808
2025-07-14T17:24:18.188,4,0.6,-0.22,9.27,-0.05,-0.0,-0.01,8820
2025-07-14T17:24:18.198,4,0.6,-0.24,9.29,-0.05,-0.0,-0.01,8832
2025-07-14T17:24:18.208,4,0.56,-0.24,9.31,-0.05,0.0,-0.01,8844
2025-07-14T17:24:18.218,4,0.53,-0.23,9.32,-0.05,-0.0,-0.01,8856
2025-07-14T17:24:18.238,4,0.54,-0.22,9.33,-0.05,-0.0,-0.01,8868
2025-07-14T17:24:18.248,4,0.55,-0.22,9.28,-0.05,-0.0,-0.01,8880
2025-07-14T17:24:18.258,4,0.57,-0.22,9.29,-0.05,-0.01,-0.01,8892
2025-07-14T17:24:18.268,4,0.59,-0.2,9.29,-0.05,-0.01,-0.01,8904
2025-07-14T17:24:18.278,4,0.59,-0.2,9.28,-0.05,-0.01,-0.01,8916
2025-07-14T17:24:18.298,4,0.6,-0.22,9.25,-0.05,-0.0,-0.01,8928
2025-07-14T17:24:18.308,4,0.59,-0.21,9.3,-0.05,-0.0,-0.01,8940
2025-07-14T17:24:18.318,4,0.56,-0.22,9.29,-0.05,-0.0,-0.01,8952
2025-07-14T17:24:18.328,4,0.56,-0.21,9.34,-0.05,-0.0,-0.01,8964
2025-07-14T17:24:18.338,4,0.54,-0.2,9.3,-0.05,-0.0,-0.01,8976
2025-07-14T17:24:18.358,4,0.54,-0.22,9.3,-0.05,-0.0,-0.01,8988
2025-07-14T17:24:18.368,4,0.55,-0.2,9.29,-0.05,-0.01,-0.01,9000
2025-07-14T17:24:18.378,4,0.56,-0.21,9.27,-0.05,-0.01,-0.01,9012
2025-07-14T17:24:18.388,4,0.6,-0.22,9.25,-0.05,-0.01,-0.01,9024
2025-07-14T17:24:18.398,4,0.62,-0.22,9.25,-0.05,-0.0,-0.01,9036
2025-07-14T17:24:18.418,4,0.6,-0.22,9.25,-0.05,-0.0,-0.01,9048
2025-07-14T17:24:18.428,4,0.6,-0.23,9.25,-0.05,-0.0,-0.01,9060
2025-07-14T17:24:18.438,4,0.57,-0.22,9.28,-0.05,-0.0,-0.01,9072
2025-07-14T17:24:18.448,4,0.56,-0.22,9.29,-0.05,-0.0,-0.01,9084
2025-07-14T17:24:18.458,4,0.55,-0.22,9.31,-0.05,-0.0,-0.01,9096
2025-07-14T17:24:18.478,4,0.53,-0.21,9.3,-0.05,-0.0,-0.01,9108
2025-07-14T17:24:18.488,4,0.55,-0.22,9.29,-0.05,-0.01,-0.01,9120
2025-07-14T17:24:18.498,4,0.57,-0.24,9.26,-0.05,-0.0,-0.01,9132
2025-07-14T17:24:18.508,4,0.58,-0.23,9.27,-0.05,-0.0,-0.01,9144
2025-07-14T17:24:18.518,4,0.58,-0.22,9.28,-0.05,-0.0,-0.01,9156
2025-07-14T17:24:18.538,4,0.59,-0.24,9.29,-0.05,-0.0,-0.01,9168
2025-07-14T17:24:18.548,4,0.57,-0.22,9.28,-0.05,-0.0,-0.01,9180
2025-07-14T17:24:18.558,4,0.56,-0.21,9.3,-0.05,-0.0,-0.01,9192
2025-07-14T17:24:18.568,4,0.53,-0.2,9.3,-0.05,-0.0,-0.01,9204
2025-07-14T17:24:18.578,4,0.55,-0.21,9.31,-0.05,-0.0,-0.01,9216
2025-07-14T17:24:18.598,4,0.55,-0.22,9.27,-0.05,-0.01,-0.01,9228
2025-07-14T17:24:18.608,4,0.55,-0.23,9.27,-0.05,-0.01,-0.01,9240
2025-07-14T17:24:18.618,4,0.58,-0.23,9.28,-0.05,-0.01,-0.01,9252
2025-07-14T17:24:18.628,4,0.59,-0.24,9.28,-0.05,-0.0,-0.01,9264
2025-07-14T17:24:18.638,4,0.59,-0.22,9.27,-0.05,-0.0,-0.01,9276
2025-07-14T17:24:18.658,4,0.59,-0.23,9.29,-0.05,-0.0,-0.01,9288
2025-07-14T17:24:18.668,4,0.57,-0.21,9.28,-0.05,-0.0,-0.01,9300
2025-07-14T17:24:18.678,4,0.57,-0.19,9.28,-0.05,-0.0,-0.01,9312
2025-07-14T17:24:18.688,4,0.55,-0.2,9.28,-0.05,-0.0,-0.01,9324
2025-07-14T17:24:18.698,4,0.54,-0.22,9.28,-0.05,-0.0,-0.01,9336
2025-07-14T17:24:18.718,4,0.57,-0.23,9.3,-0.04,-0.0,-0.01,9348
2025-07-14T17:24:18.728,4,0.57,-0.22,9.31,-0.05,-0.0,-0.01,9360
2025-07-14T17:24:18.738,4,0.58,-0.22,9.28,-0.05,-0.0,-0.01,9372
2025-07-14T17:24:18.748,4,0.57,-0.23,9.29,-0.05,-0.0,-0.01,9384
2025-07-14T17:24:18.758,4,0.57,-0.22,9.28,-0.05,-0.0,-0.01,9396
2025-07-14T17:24:18.778,4,0.56,-0.2,9.28,-0.05,-0.0,-0.01,9408
2025-07-14T17:24:18.788,4,0.55,-0.21,9.3,-0.05,-0.0,-0.01,9420
2025-07-14T17:24:18.798,4,0.56,-0.2,9.28,-0.05,-0.0,-0.01,9432
2025-07-14T17:24:18.808,4,0.56,-0.21,9.26,-0.05,-0.0,-0.01,9444
2025-07-14T17:24:18.818,4,0.57,-0.22,9.25,-0.05,-0.0,-0.01,9456
2025-07-14T17:24:18.838,4,0.58,-0.22,9.28,-0.05,-0.0,-0.01,9468
2025-07-14T17:24:18.848,4,0.57,-0.24,9.29,-0.05,-0.0,-0.01,9480
2025-07-14T17:24:18.858,4,0.57,-0.25,9.3,-0.05,-0.0,-0.01,9492
2025-07-14T17:24:18.868,4,0.57,-0.23,9.28,-0.05,-0.0,-0.01,9504
2025-07-14T17:24:18.878,4,0.59,-0.23,9.31,-0.05,-0.0,-0.01,9516
2025-07-14T17:24:18.898,4,0.59,-0.21,9.28,-0.05,-0.0,-0.01,9528
2025-07-14T17:24:18.908,4,0.54,-0.21,9.29,-0.05,-0.0,-0.01,9540
2025-07-14T17:24:18.918,4,0.57,-0.2,9.28,-0.05,-0.01,-0.01,9552
2025-07-14T17:24:18.928,4,0.57,-0.2,9.28,-0.05,-0.0,-0.01,9564
2025-07-14T17:24:18.938,4,0.57,-0.21,9.27,-0.05,-0.0,-0.01,9576
2025-07-14T17:24:18.958,4,0.57,-0.22,9.27,-0.05,-0.0,-0.01,9588
2025-07-14T17:24:18.968,4,0.6,-0.23,9.31,-0.05,-0.0,-0.01,9600
2025-07-14T17:24:18.978,4,0.57,-0.23,9.29,-0.05,-0.0,-0.01,9612
2025-07-14T17:24:18.988,4,0.57,-0.21,9.3,-0.05,-0.0,-0.01,9624
2025-07-14T17:24:18.998,4,0.55,-0.19,9.3,-0.05,-0.0,-0.01,9636
2025-07-14T17:24:19.018,4,0.56,-0.19,9.3,-0.05,-0.0,-0.01,9648
2025-07-14T17:24:19.028,4,0.55,-0.2,9.26,-0.05,-0.0,-0.01,9660
2025-07-14T17:24:19.038,4,0.57,-0.2,9.3,-0.05,-0.01,-0.01,9672
2025-07-14T17:24:19.048,4,0.58,-0.21,9.3,-0.05,-0.0,-0.01,9684
2025-07-14T17:24:19.058,4,0.57,-0.23,9.27,-0.05,-0.01,-0.01,9696
2025-07-14T17:24:19.078,4,0.57,-0.21,9.3,-0.05,-0.0,-0.01,9708
2025-07-14T17:24:19.088,4,0.57,-0.22,9.3,-0.05,-0.0,-0.01,9720
2025-07-14T17:24:19.098,4,0.56,-0.23,9.3,-0.05,-0.0,-0.01,9732
2025-07-14T17:24:19.108,4,0.56,-0.22,9.29,-0.05,-0.0,-0.01,9744
2025-07-14T17:24:19.118,4,0.56,-0.22,9.31,-0.05,-0.0,-0.01,9756
2025-07-14T17:24:19.138,4,0.58,-0.21,9.28,-0.05,-0.0,-0.01,9768
2025-07-14T17:24:19.148,4,0.56,-0.23,9.26,-0.05,-0.0,-0.01,9780
2025-07-14T17:24:19.158,4,0.58,-0.22,9.27,-0.05,-0.01,-0.01,9792
2025-07-14T17:24:19.168,4,0.57,-0.21,9.29,-0.05,-0.0,-0.01,9804
2025-07-14T17:24:19.178,4,0.57,-0.23,9.31,-0.05,-0.0,-0.01,9816
2025-07-14T17:24:19.198,4,0.58,-0.22,9.28,-0.05,-0.0,-0.01,9828
2025-07-14T17:24:19.208,4,0.56,-0.22,9.27,-0.05,-0.0,-0.01,9840
2025-07-14T17:24:19.218,4,0.57,-0.19,9.29,-0.05,-0.0,-0.01,9852
2025-07-14T17:24:19.228,4,0.57,-0.2,9.28,-0.05,-0.0,-0.01,9864
2025-07-14T17:24:19.238,4,0.57,-0.21,9.29,-0.05,-0.0,-0.01,9876
2025-07-14T17:24:19.258,4,0.56,-0.2,9.3,-0.05,-0.0,-0.01,9888
2025-07-14T17:24:19.268,4,0.58,-0.19,9.27,-0.05,-0.0,-0.01,9900
2025-07-14T17:24:19.278,4,0.58,-0.23,9.27,-0.05,-0.0,-0.01,9912
2025-07-14T17:24:19.288,4,0.58,-0.24,9.23,-0.05,-0.0,-0.01,9924
2025-07-14T17:24:19.298,4,0.58,-0.21,9.25,-0.05,-0.0,-0.01,9936
2025-07-14T17:24:19.318,4,0.58,-0.23,9.3,-0.05,-0.0,-0.01,9948
2025-07-14T17:24:19.328,4,0.58,-0.22,9.32,-0.05,-0.0,-0.01,9960
2025-07-14T17:24:19.338,4,0.59,-0.21,9.3,-0.05,-0.0,-0.01,9972
2025-07-14T17:24:19.348,4,0.58,-0.21,9.27,-0.05,-0.0,-0.01,9984
2025-07-14T17:24:19.358,4,0.59,-0.22,9.28,-0.05,-0.0,-0.01,9996
2025-07-14T17:24:19.378,4,0.57,-0.22,9.3,-0.05,-0.0,-0.01,10008
2025-07-14T17:24:19.388,4,0.58,-0.22,9.31,-0.05,-0.0,-0.01,10020
2025-07-14T17:24:19.398,4,0.58,-0.22,9.29,-0.05,-0.0,-0.01,10032
2025-07-14T17:24:19.408,4,0.58,-0.22,9.28,-0.05,-0.0,-0.01,10044
2025-07-14T17:24:19.418,4,0.58,-0.23,9.28,-0.05,-0.0,-0.01,10056
2025-07-14T17:24:19.438,4,0.59,-0.2,9.26,-0.05,-0.0,-0.01,10068
2025-07-14T17:24:19.448,4,0.57,-0.23,9.26,-0.05,-0.0,-0.01,10080
2025-07-14T17:24:19.458,4,0.57,-0.21,9.3,-0.05,-0.0,-0.01,10092
2025-07-14T17:24:19.468,4,0.55,-0.23,9.31,-0.05,-0.0,-0.01,10104
2025-07-14T17:24:19.478,4,0.57,-0.21,9.29,-0.05,-0.0,-0.01,10116
2025-07-14T17:24:19.498,4,0.57,-0.22,9.31,-0.05,-0.0,-0.01,10128
2025-07-14T17:24:19.508,4,0.56,-0.23,9.32,-0.05,-0.0,-0.01,10140
2025-07-14T17:24:19.518,4,0.57,-0.22,9.28,-0.05,-0.0,-0.01,10152
2025-07-14T17:24:19.528,4,0.58,-0.22,9.28,-0.05,-0.01,-0.01,10164
2025-07-14T17:24:19.538,4,0.58,-0.24,9.29,-0.05,-0.0,-0.01,10176
2025-07-14T17:24:19.558,4,0.58,-0.24,9.28,-0.05,-0.0,-0.01,10188
2025-07-14T17:24:19.568,4,0.58,-0.21,9.29,-0.05,-0.0,-0.01,10200
2025-07-14T17:24:19.578,4,0.58,-0.22,9.28,-0.05,-0.0,-0.01,10212
2025-07-14T17:24:19.588,4,0.58,-0.19,9.28,-0.05,-0.0,-0.01,10224
2025-07-14T17:24:19.598,4,0.57,-0.21,9.29,-0.05,-0.0,-0.01,10236
2025-07-14T17:24:19.618,4,0.57,-0.19,9.28,-0.05,-0.0,-0.01,10248
2025-07-14T17:24:19.628,4,0.57,-0.23,9.28,-0.05,-0.0,-0.01,10260
2025-07-14T17:24:19.638,4,0.55,-0.22,9.24,-0.05,-0.0,-0.01,10272
2025-07-14T17:24:19.648,4,0.56,-0.23,9.28,-0.05,-0.0,-0.01,10284
2025-07-14T17:24:19.658,4,0.55,-0.22,9.3,-0.05,-0.0,-0.01,10296
2025-07-14T17:24:19.678,4,0.57,-0.22,9.28,-0.05,-0.0,-0.01,10308
2025-07-14T17:24:19.688,4,0.58,-0.22,9.29,-0.05,-0.0,-0.01,10320
2025-07-14T17:24:19.698,4,0.59,-0.21,9.27,-0.05,-0.0,-0.01,10332
2025-07-14T17:24:19.708,4,0.58,-0.21,9.29,-0.05,-0.0,-0.01,10344
2025-07-14T17:24:19.718,4,0.55,-0.21,9.27,-0.05,-0.0,-0.01,10356
2025-07-14T17:24:19.738,4,0.55,-0.22,9.3,-0.05,-0.0,-0.01,10368
2025-07-14T17:24:19.748,4,0.57,-0.22,9.29,-0.05,-0.01,-0.01,10380
2025-07-14T17:24:19.758,4,0.58,-0.25,9.26,-0.05,-0.0,-0.01,10392
2025-07-14T17:24:19.768,4,0.57,-0.23,9.29,-0.05,-0.0,-0.01,10404
2025-07-14T17:24:19.778,4,0.57,-0.21,9.27,-0.05,-0.0,-0.01,10416
2025-07-14T17:24:19.798,4,0.57,-0.22,9.27,-0.05,-0.0,-0.01,10428
2025-07-14T17:24:19.808,4,0.58,-0.22,9.25,-0.05,-0.0,-0.01,10440
2025-07-14T17:24:19.818,4,0.58,-0.22,9.29,-0.05,-0.0,-0.01,10452
2025-07-14T17:24:19.828,4,0.57,-0.21,9.3,-0.05,-0.0,-0.01,10464
2025-07-14T17:24:19.838,4,0.56,-0.22,9.29,-0.05,-0.0,-0.01,10476
2025-07-14T17:24:19.858,4,0.56,-0.21,9.27,-0.05,-0.0,-0.01,10488
2025-07-14T17:24:19.868,4,0.56,-0.21,9.27,-0.05,-0.0,-0.01,10500
2025-07-14T17:24:19.878,4,0.56,-0.22,9.31,-0.05,-0.0,-0.01,10512
2025-07-14T17:24:19.888,4,0.57,-0.21,9.3,-0.05,-0.0,-0.01,10524
2025-07-14T17:24:19.898,4,0.59,-0.22,9.29,-0.05,-0.0,-0.01,10536
2025-07-14T17:24:19.918,4,0.56,-0.23,9.29,-0.05,-0.0,-0.01,10548
2025-07-14T17:24:19.928,4,0.58,-0.22,9.28,-0.05,-0.0,-0.01,10560
2025-07-14T17:24:19.938,4,0.59,-0.23,9.3,-0.05,-0.0,-0.01,10572
2025-07-14T17:24:19.948,4,0.57,-0.21,9.29,-0.05,-0.0,-0.01,10584
2025-07-14T17:24:19.958,4,0.58,-0.22,9.3,-0.05,-0.0,-0.01,10596
2025-07-14T17:24:19.978,4,0.59,-0.22,9.25,-0.05,-0.0,-0.01,10608
2025-07-14T17:24:19.988,4,0.56,-0.21,9.25,-0.05,-0.0,-0.01,10620
2025-07-14T17:24:19.998,4,0.57,-0.21,9.28,-0.05,-0.0,-0.01,10632
2025-07-14T17:24:20.008,4,0.57,-0.19,9.31,-0.05,-0.0,-0.01,10644
2025-07-14T17:24:20.018,4,0.57,-0.18,9.28,-0.05,-0.0,-0.01,10656
2025-07-14T17:24:20.038,4,0.57,-0.22,9.28,-0.05,-0.0,-0.01,10668
2025-07-14T17:24:20.048,4,0.57,-0.23,9.29,-0.05,-0.0,-0.01,10680
2025-07-14T17:24:20.058,4,0.57,-0.24,9.31,-0.05,-0.0,-0.01,10692
2025-07-14T17:24:20.068,4,0.59,-0.22,9.3,-0.05,-0.0,-0.01,10704
2025-07-14T17:24:20.078,4,0.59,-0.22,9.28,-0.05,-0.0,-0.01,10716
2025-07-14T17:24:20.098,4,0.58,-0.21,9.26,-0.05,-0.0,-0.01,10728
2025-07-14T17:24:20.108,4,0.56,-0.24,9.27,-0.05,-0.0,-0.01,10740
2025-07-14T17:24:20.118,4,0.57,-0.21,9.28,-0.05,-0.0,-0.01,10752
2025-07-14T17:24:20.128,4,0.58,-0.21,9.28,-0.05,-0.0,-0.01,10764
2025-07-14T17:24:20.138,4,0.58,-0.21,9.31,-0.05,-0.0,-0.01,10776
2025-07-14T17:24:20.158,4,0.56,-0.21,9.3,-0.05,-0.0,-0.01,10788
2025-07-14T17:24:20.168,4,0.57,-0.23,9.31,-0.05,-0.0,-0.01,10800
2025-07-14T17:24:20.178,4,0.57,-0.23,9.3,-0.05,-0.0,-0.01,10812
2025-07-14T17:24:20.188,4,0.57,-0.21,9.29,-0.05,-0.0,-0.01,10824
2025-07-14T17:24:20.198,4,0.56,-0.22,9.29,-0.05,-0.0,-0.01,10836
2025-07-14T17:24:20.218,4,0.56,-0.23,9.29,-0.05,-0.0,-0.01,10848
2025-07-14T17:24:20.228,4,0.57,-0.22,9.29,-0.05,-0.0,-0.01,10860
2025-07-14T17:24:20.238,4,0.55,-0.22,9.29,-0.05,-0.0,-0.01,10872
2025-07-14T17:24:20.248,4,0.56,-0.19,9.29,-0.05,-0.0,-0.01,10884
2025-07-14T17:24:20.258,4,0.58,-0.2,9.3,-0.05,-0.01,-0.01,10896
2025-07-14T17:24:20.278,4,0.58,-0.21,9.27,-0.05,-0.01,-0.01,10908
2025-07-14T17:24:20.288,4,0.58,-0.24,9.31,-0.05,-0.0,-0.01,10920
2025-07-14T17:24:20.298,4,0.6,-0.23,9.27,-0.05,-0.0,-0.01,10932
2025-07-14T17:24:20.308,4,0.57,-0.2,9.29,-0.05,-0.0,-0.01,10944
2025-07-14T17:24:20.318,4,0.56,-0.21,9.3,-0.05,-0.0,-0.01,10956
2025-07-14T17:24:20.338,4,0.55,-0.23,9.28,-0.05,-0.0,-0.01,10968
2025-07-14T17:24:20.348,4,0.58,-0.22,9.27,-0.05,-0.0,-0.01,10980
2025-07-14T17:24:20.358,4,0.57,-0.21,9.29,-0.05,-0.0,-0.01,10992
2025-07-14T17:24:20.368,4,0.56,-0.23,9.31,-0.05,-0.0,-0.01,11004
2025-07-14T17:24:20.378,4,0.57,-0.21,9.31,-0.05,-0.0,-0.01,11016
2025-07-14T17:24:20.398,4,0.56,-0.21,9.26,-0.05,-0.0,-0.01,11028
2025-07-14T17:24:20.408,4,0.58,-0.21,9.28,-0.05,-0.0,-0.01,11040
2025-07-14T17:24:20.418,4,0.6,-0.23,9.29,-0.05,-0.0,-0.01,11052
2025-07-14T17:24:20.428,4,0.59,-0.21,9.28,-0.05,-0.0,-0.01,11064
2025-07-14T17:24:20.438,4,0.6,-0.22,9.29,-0.05,-0.0,-0.01,11076
2025-07-14T17:24:20.458,4,0.59,-0.21,9.26,-0.05,-0.0,-0.01,11088
2025-07-14T17:24:20.468,4,0.59,-0.22,9.26,-0.05,-0.0,-0.01,11100
2025-07-14T17:24:20.478,4,0.58,-0.23,9.28,-0.05,-0.0,-0.01,11112
2025-07-14T17:24:20.488,4,0.58,-0.22,9.29,-0.05,-0.0,-0.01,11124
2025-07-14T17:24:20.498,4,0.58,-0.22,9.29,-0.05,-0.0,-0.01,11136
2025-07-14T17:24:20.518,4,0.58,-0.23,9.3,-0.05,-0.0,-0.01,11148
2025-07-14T17:24:20.528,4,0.58,-0.22,9.27,-0.05,-0.0,-0.01,11160
2025-07-14T17:24:20.538,4,0.61,-0.2,9.3,-0.05,-0.0,-0.01,11172
2025-07-14T17:24:20.548,4,0.58,-0.2,9.28,-0.05,-0.0,-0.01,11184
2025-07-14T17:24:20.558,4,0.58,-0.22,9.28,-0.05,-0.0,-0.01,11196
2025-07-14T17:24:20.578,4,0.57,-0.23,9.31,-0.05,-0.0,-0.01,11208
2025-07-14T17:24:20.588,4,0.59,-0.22,9.31,-0.05,-0.0,-0.01,11220
2025-07-14T17:24:20.598,4,0.58,-0.21,9.29,-0.05,-0.0,-0.01,11232
2025-07-14T17:24:20.608,4,0.6,-0.23,9.29,-0.05,-0.0,-0.01,11244
2025-07-14T17:24:20.618,4,0.59,-0.22,9.29,-0.05,-0.0,-0.01,11256
2025-07-14T17:24:20.638,4,0.57,-0.22,9.27,-0.05,-0.0,-0.01,11268
2025-07-14T17:24:20.648,4,0.57,-0.21,9.29,-0.05,-0.0,-0.01,11280
2025-07-14T17:24:20.658,4,0.57,-0.22,9.28,-0.05,-0.0,-0.01,11292
2025-07-14T17:24:20.668,4,0.57,-0.23,9.3,-0.05,-0.0,-0.01,11304
2025-07-14T17:24:20.678,4,0.58,-0.22,9.3,-0.05,-0.0,-0.01,11316
2025-07-14T17:24:20.698,4,0.58,-0.22,9.3,-0.05,-0.0,-0.01,11328
2025-07-14T17:24:20.708,4,0.57,-0.21,9.29,-0.05,-0.0,-0.01,11340
2025-07-14T17:24:20.718,4,0.57,-0.23,9.33,-0.05,-0.0,-0.01,11352
2025-07-14T17:24:20.728,4,0.57,-0.23,9.29,-0.05,-0.0,-0.01,11364
2025-07-14T17:24:20.738,4,0.58,-0.22,9.31,-0.05,-0.0,-0.01,11376
2025-07-14T17:24:20.758,4,0.57,-0.22,9.3,-0.05,-0.0,-0.01,11388
2025-07-14T17:24:20.768,4,0.58,-0.22,9.29,-0.05,-0.0,-0.01,11400
2025-07-14T17:24:20.778,4,0.57,-0.21,9.29,-0.05,-0.0,-0.01,11412
2025-07-14T17:24:20.788,4,0.57,-0.22,9.28,-0.05,-0.0,-0.01,11424
2025-07-14T17:24:20.798,4,0.58,-0.22,9.26,-0.05,-0.0,-0.01,11436
2025-07-14T17:24:20.818,4,0.56,-0.22,9.29,-0.05,-0.0,-0.01,11448
2025-07-14T17:24:20.828,4,0.57,-0.2,9.3,-0.05,-0.0,-0.01,11460
2025-07-14T17:24:20.838,4,0.55,-0.22,9.25,-0.05,-0.0,-0.01,11472
2025-07-14T17:24:20.848,4,0.57,-0.23,9.28,-0.05,-0.0,-0.01,11484
2025-07-14T17:24:20.858,4,0.57,-0.21,9.28,-0.05,-0.0,-0.01,11496
2025-07-14T17:24:20.878,4,0.56,-0.21,9.31,-0.05,-0.0,-0.01,11508
2025-07-14T17:24:20.888,4,0.57,-0.21,9.3,-0.05,-0.0,-0.01,11520
2025-07-14T17:24:20.898,4,0.58,-0.23,9.3,-0.05,-0.0,-0.01,11532
2025-07-14T17:24:20.908,4,0.59,-0.22,9.27,-0.05,-0.0,-0.01,11544
2025-07-14T17:24:20.918,4,0.56,-0.23,9.24,-0.05,-0.0,-0.01,11556
2025-07-14T17:24:20.938,4,0.58,-0.23,9.29,-0.05,-0.0,-0.01,11568
2025-07-14T17:24:20.948,4,0.57,-0.23,9.27,-0.05,-0.0,-0.01,11580
2025-07-14T17:24:20.958,4,0.59,-0.21,9.29,-0.05,-0.0,-0.01,11592
2025-07-14T17:24:20.968,4,0.57,-0.22,9.3,-0.05,-0.0,-0.01,11604
2025-07-14T17:24:20.978,4,0.58,-0.22,9.29,-0.05,-0.0,-0.01,11616
2025-07-14T17:24:20.998,4,0.6,-0.23,9.3,-0.05,-0.01,-0.01,11628
2025-07-14T17:24:21.008,4,0.59,-0.22,9.32,-0.05,-0.0,-0.01,11640
2025-07-14T17:24:21.018,4,0.57,-0.2,9.31,-0.05,-0.0,-0.01,11652
2025-07-14T17:24:21.028,4,0.57,-0.23,9.27,-0.05,-0.0,-0.01,11664
2025-07-14T17:24:21.038,4,0.59,-0.22,9.27,-0.05,-0.0,-0.01,11676
2025-07-14T17:24:21.058,4,0.57,-0.22,9.28,-0.05,-0.0,-0.01,11688
2025-07-14T17:24:21.068,4,0.57,-0.21,9.28,-0.05,-0.0,-0.01,11700
2025-07-14T17:24:21.078,4,0.56,-0.21,9.29,-0.05,-0.0,-0.01,11712
2025-07-14T17:24:21.088,4,0.57,-0.21,9.28,-0.05,-0.0,-0.01,11724
2025-07-14T17:24:21.098,4,0.58,-0.19,9.29,-0.05,-0.0,-0.01,11736
2025-07-14T17:24:21.118,4,0.58,-0.22,9.3,-0.05,-0.0,-0.01,11748
2025-07-14T17:24:21.128,4,0.59,-0.22,9.29,-0.05,-0.0,-0.01,11760
2025-07-14T17:24:21.138,4,0.57,-0.21,9.31,-0.05,-0.0,-0.01,11772
2025-07-14T17:24:21.148,4,0.58,-0.21,9.28,-0.05,-0.0,-0.01,11784
2025-07-14T17:24:21.158,4,0.57,-0.2,9.27,-0.05,-0.0,-0.01,11796
2025-07-14T17:24:21.178,4,0.58,-0.21,9.3,-0.05,-0.01,-0.01,11808
2025-07-14T17:24:21.188,4,0.57,-0.22,9.28,-0.05,-0.0,-0.01,11820
2025-07-14T17:24:21.198,4,0.57,-0.2,9.27,-0.05,-0.01,-0.01,11832
2025-07-14T17:24:21.208,4,0.57,-0.22,9.29,-0.05,-0.01,-0.01,11844
2025-07-14T17:24:21.218,4,0.59,-0.21,9.32,-0.05,-0.01,-0.01,11856
2025-07-14T17:24:21.238,4,0.59,-0.21,9.3,-0.05,-0.0,-0.01,11868
2025-07-14T17:24:21.248,4,0.56,-0.23,9.28,-0.05,-0.01,-0.01,11880
2025-07-14T17:24:21.258,4,0.56,-0.23,9.28,-0.05,-0.0,-0.01,11892
2025-07-14T17:24:21.268,4,0.56,-0.21,9.31,-0.05,-0.01,-0.01,11904
2025-07-14T17:24:21.278,4,0.56,-0.22,9.29,-0.05,-0.01,-0.01,11916
2025-07-14T17:24:21.298,4,0.58,-0.22,9.27,-0.05,-0.01,-0.01,11928
2025-07-14T17:24:21.308,4,0.59,-0.22,9.28,-0.05,-0.01,-0.01,11940
2025-07-14T17:24:21.318,4,0.57,-0.21,9.3,-0.05,-0.0,-0.01,11952
2025-07-14T17:24:21.328,4,0.59,-0.22,9.3,-0.05,-0.01,-0.01,11964
2025-07-14T17:24:21.338,4,0.58,-0.23,9.32,-0.05,-0.0,-0.01,11976
2025-07-14T17:24:21.358,4,0.57,-0.22,9.34,-0.05,-0.01,-0.01,11988
2025-07-14T17:24:21.368,4,0.57,-0.23,9.31,-0.05,-0.01,-0.01,12000
2025-07-14T17:24:21.378,4,0.56,-0.22,9.29,-0.05,-0.01,-0.01,12012
2025-07-14T17:24:21.388,4,0.56,-0.21,9.31,-0.05,-0.01,-0.01,12024
2025-07-14T17:24:21.398,4,0.55,-0.24,9.34,-0.05,-0.01,-0.01,12036
2025-07-14T17:24:21.418,4,0.55,-0.22,9.3,-0.04,-0.01,-0.01,12048
2025-07-14T17:24:21.428,4,0.57,-0.21,9.33,-0.04,-0.01,-0.01,12060
2025-07-14T17:24:21.438,4,0.57,-0.21,9.35,-0.04,-0.02,-0.01,12072
2025-07-14T17:24:21.448,4,0.55,-0.22,9.3,-0.04,-0.02,-0.01,12084
2025-07-14T17:24:21.458,4,0.57,-0.22,9.3,-0.04,-0.02,-0.01,12096
2025-07-14T17:24:21.478,4,0.57,-0.19,9.23,-0.04,-0.02,-0.01,12108
2025-07-14T17:24:21.488,4,0.61,-0.2,9.2,-0.04,-0.01,-0.01,12120
2025-07-14T17:24:21.498,4,0.63,-0.19,9.31,-0.04,-0.01,-0.01,12132
2025-07-14T17:24:21.508,4,0.64,-0.18,9.34,-0.05,-0.01,-0.01,12144
2025-07-14T17:24:21.518,4,0.61,-0.17,9.25,-0.05,-0.01,-0.01,12156
2025-07-14T17:24:21.538,4,0.57,-0.18,9.25,-0.05,-0.01,-0.01,12168
2025-07-14T17:24:21.548,4,0.55,-0.17,9.3,-0.04,-0.01,-0.01,12180
2025-07-14T17:24:21.558,4,0.54,-0.21,9.36,-0.04,-0.01,-0.01,12192
2025-07-14T17:24:21.568,4,0.55,-0.24,9.36,-0.04,-0.01,-0.01,12204
2025-07-14T17:24:21.578,4,0.6,-0.25,9.18,-0.05,-0.01,-0.01,12216
2025-07-14T17:24:21.598,4,0.64,-0.28,9.17,-0.05,-0.01,-0.01,12228
2025-07-14T17:24:21.608,4,0.65,-0.25,9.32,-0.05,-0.01,-0.01,12240
2025-07-14T17:24:21.618,4,0.65,-0.23,9.21,-0.05,-0.0,-0.01,12252
2025-07-14T17:24:21.628,4,0.67,-0.23,9.24,-0.04,-0.0,-0.01,12264
2025-07-14T17:24:21.638,4,0.65,-0.2,9.29,-0.05,-0.0,-0.01,12276
2025-07-14T17:24:21.658,4,0.6,-0.18,9.32,-0.05,-0.0,-0.01,12288
2025-07-14T17:24:21.668,4,0.56,-0.17,9.32,-0.05,-0.0,-0.01,12300
2025-07-14T17:24:21.678,4,0.54,-0.16,9.35,-0.05,-0.01,-0.01,12312
2025-07-14T17:24:21.688,4,0.57,-0.18,9.38,-0.05,-0.01,-0.01,12324
2025-07-14T17:24:21.698,4,0.56,-0.25,9.32,-0.05,-0.01,-0.01,12336
2025-07-14T17:24:21.718,4,0.59,-0.26,9.33,-0.05,-0.02,-0.01,12348
2025-07-14T17:24:21.728,4,0.58,-0.22,9.31,-0.05,-0.02,-0.01,12360
2025-07-14T17:24:21.738,4,0.56,-0.2,9.28,-0.05,-0.02,-0.01,12372
2025-07-14T17:24:21.748,4,0.52,-0.15,9.32,-0.05,-0.02,-0.01,12384
2025-07-14T17:24:21.758,4,0.53,-0.16,9.35,-0.05,-0.02,-0.01,12396
2025-07-14T17:24:21.778,4,0.55,-0.2,9.31,-0.05,-0.02,-0.01,12408
2025-07-14T17:24:21.788,4,0.58,-0.23,9.24,-0.05,-0.02,-0.01,12420
2025-07-14T17:24:21.798,4,0.68,-0.26,9.26,-0.05,-0.02,-0.01,12432
2025-07-14T17:24:21.808,4,0.72,-0.24,9.16,-0.05,-0.02,-0.01,12444
2025-07-14T17:24:21.818,4,0.71,-0.21,9.18,-0.05,-0.01,-0.01,12456
2025-07-14T17:24:21.838,4,0.71,-0.21,9.15,-0.05,-0.01,-0.01,12468
2025-07-14T17:24:21.848,4,0.68,-0.26,9.23,-0.05,-0.0,-0.01,12480
2025-07-14T17:24:21.858,4,0.63,-0.27,9.27,-0.05,-0.0,-0.01,12492
2025-07-14T17:24:21.868,4,0.58,-0.25,9.29,-0.05,-0.0,-0.01,12504
2025-07-14T17:24:21.878,4,0.57,-0.21,9.31,-0.05,-0.0,-0.01,12516
2025-07-14T17:24:21.898,4,0.57,-0.16,9.35,-0.05,-0.0,-0.01,12528
2025-07-14T17:24:21.908,4,0.6,-0.2,9.32,-0.05,-0.01,-0.01,12540
2025-07-14T17:24:21.918,4,0.65,-0.23,9.28,-0.05,-0.0,-0.01,12552
2025-07-14T17:24:21.928,4,0.7,-0.25,9.28,-0.05,-0.0,-0.01,12564
2025-07-14T17:24:21.938,4,0.7,-0.23,9.21,-0.05,-0.0,-0.01,12576
2025-07-14T17:24:21.958,4,0.65,-0.24,9.24,-0.05,-0.0,-0.01,12588
2025-07-14T17:24:21.968,4,0.58,-0.23,9.26,-0.05,0.0,-0.01,12600
2025-07-14T17:24:21.978,4,0.57,-0.22,9.33,-0.05,0.0,-0.01,12612
2025-07-14T17:24:21.988,4,0.54,-0.2,9.33,-0.05,-0.0,-0.01,12624
2025-07-14T17:24:21.998,4,0.56,-0.17,9.35,-0.05,-0.0,-0.01,12636
2025-07-14T17:24:22.018,4,0.57,-0.17,9.31,-0.05,-0.01,-0.01,12648
2025-07-14T17:24:22.028,4,0.59,-0.22,9.28,-0.05,-0.01,-0.01,12660
2025-07-14T17:24:22.038,4,0.63,-0.24,9.26,-0.05,-0.01,-0.01,12672
2025-07-14T17:24:22.048,4,0.68,-0.24,9.24,-0.05,-0.01,-0.01,12684
2025-07-14T17:24:22.058,4,0.68,-0.23,9.24,-0.05,-0.01,-0.01,12696
2025-07-14T17:24:22.078,4,0.66,-0.22,9.24,-0.05,-0.0,-0.01,12708
2025-07-14T17:24:22.088,4,0.64,-0.23,9.26,-0.05,-0.0,-0.01,12720
2025-07-14T17:24:22.098,4,0.59,-0.22,9.29,-0.05,-0.0,-0.01,12732
2025-07-14T17:24:22.108,4,0.58,-0.2,9.29,-0.05,-0.0,-0.01,12744
2025-07-14T17:24:22.118,4,0.59,-0.18,9.35,-0.05,-0.0,-0.01,12756
2025-07-14T17:24:22.138,4,0.61,-0.16,9.25,-0.05,-0.0,-0.01,12768
2025-07-14T17:24:22.148,4,0.64,-0.2,9.29,-0.05,-0.0,-0.01,12780
2025-07-14T17:24:22.158,4,0.66,-0.26,9.26,-0.05,-0.0,-0.01,12792
2025-07-14T17:24:22.168,4,0.67,-0.28,9.24,-0.05,-0.0,-0.01,12804
2025-07-14T17:24:22.178,4,0.65,-0.25,9.28,-0.05,-0.0,-0.01,12816
2025-07-14T17:24:22.198,4,0.63,-0.22,9.3,-0.05,0.0,-0.01,12828
2025-07-14T17:24:22.208,4,0.58,-0.19,9.3,-0.05,0.0,-0.01,12840
2025-07-14T17:24:22.218,4,0.58,-0.18,9.31,-0.05,0.0,-0.01,12852
2025-07-14T17:24:22.228,4,0.59,-0.18,9.35,-0.05,-0.0,-0.01,12864
2025-07-14T17:24:22.238,4,0.59,-0.2,9.32,-0.05,-0.01,-0.01,12876
2025-07-14T17:24:22.258,4,0.59,-0.22,9.37,-0.05,-0.01,-0.01,12888
2025-07-14T17:24:22.268,4,0.6,-0.23,9.32,-0.05,-0.01,-0.01,12900
2025-07-14T17:24:22.278,4,0.62,-0.24,9.28,-0.05,-0.01,-0.01,12912
2025-07-14T17:24:22.288,4,0.63,-0.26,9.24,-0.05,-0.01,-0.01,12924
2025-07-14T17:24:22.298,4,0.65,-0.25,9.24,-0.05,-0.01,-0.01,12936
2025-07-14T17:24:22.318,4,0.64,-0.26,9.26,-0.05,-0.01,-0.01,12948
2025-07-14T17:24:22.328,4,0.63,-0.22,9.29,-0.05,-0.0,-0.01,12960
2025-07-14T17:24:22.338,4,0.63,-0.2,9.28,-0.05,-0.01,-0.01,12972
2025-07-14T17:24:22.348,4,0.63,-0.17,9.28,-0.05,-0.01,-0.01,12984
2025-07-14T17:24:22.358,4,0.63,-0.17,9.31,-0.05,-0.01,-0.01,12996
2025-07-14T17:24:22.378,4,0.63,-0.21,9.27,-0.05,-0.01,-0.01,13008
2025-07-14T17:24:22.388,4,0.62,-0.25,9.25,-0.05,-0.01,-0.01,13020
2025-07-14T17:24:22.398,4,0.64,-0.27,9.24,-0.05,-0.0,-0.01,13032
2025-07-14T17:24:22.408,4,0.62,-0.28,9.26,-0.05,-0.0,-0.01,13044
2025-07-14T17:24:22.418,4,0.61,-0.24,9.28,-0.05,-0.0,-0.01,13056
2025-07-14T17:24:22.438,4,0.61,-0.21,9.32,-0.05,-0.0,-0.01,13068
2025-07-14T17:24:22.448,4,0.59,-0.2,9.29,-0.05,-0.0,-0.01,13080
2025-07-14T17:24:22.458,4,0.59,-0.19,9.29,-0.05,-0.0,-0.01,13092
2025-07-14T17:24:22.468,4,0.59,-0.18,9.34,-0.05,-0.0,-0.01,13104
2025-07-14T17:24:22.478,4,0.59,-0.18,9.28,-0.05,-0.01,-0.01,13116
2025-07-14T17:24:22.498,4,0.58,-0.2,9.3,-0.05,-0.0,-0.01,13128
2025-07-14T17:24:22.508,4,0.63,-0.25,9.31,-0.05,-0.01,-0.01,13140
2025-07-14T17:24:22.518,4,0.61,-0.27,9.27,-0.05,-0.01,-0.01,13152
2025-07-14T17:24:22.528,4,0.63,-0.28,9.26,-0.05,-0.01,-0.01,13164
2025-07-14T17:24:22.538,4,0.63,-0.24,9.28,-0.05,-0.0,-0.01,13176
2025-07-14T17:24:22.558,4,0.6,-0.22,9.27,-0.05,-0.0,-0.01,13188
2025-07-14T17:24:22.568,4,0.6,-0.19,9.27,-0.05,-0.01,-0.01,13200
2025-07-14T17:24:22.578,4,0.62,-0.2,9.34,-0.05,-0.01,-0.01,13212
2025-07-14T17:24:22.588,4,0.61,-0.19,9.26,-0.05,-0.0,-0.01,13224
2025-07-14T17:24:22.598,4,0.64,-0.21,9.26,-0.05,-0.0,-0.01,13236
2025-07-14T17:24:22.618,4,0.64,-0.22,9.27,-0.05,-0.0,-0.01,13248
2025-07-14T17:24:22.628,4,0.63,-0.26,9.26,-0.05,-0.0,-0.01,13260
2025-07-14T17:24:22.638,4,0.63,-0.27,9.26,-0.05,-0.0,-0.01,13272
2025-07-14T17:24:22.648,4,0.62,-0.25,9.31,-0.05,-0.0,-0.01,13284
2025-07-14T17:24:22.658,4,0.59,-0.21,9.32,-0.05,-0.0,-0.01,13296
2025-07-14T17:24:22.678,4,0.6,-0.18,9.27,-0.05,-0.0,-0.01,13308
2025-07-14T17:24:22.688,4,0.59,-0.2,9.32,-0.05,-0.0,-0.01,13320
2025-07-14T17:24:22.698,4,0.58,-0.2,9.28,-0.05,-0.0,-0.01,13332
2025-07-14T17:24:22.708,4,0.61,-0.19,9.3,-0.05,-0.01,-0.01,13344
2025-07-14T17:24:22.718,4,0.64,-0.21,9.3,-0.05,-0.0,-0.01,13356
2025-07-14T17:24:22.738,4,0.63,-0.23,9.24,-0.05,-0.01,-0.01,13368
2025-07-14T17:24:22.748,4,0.65,-0.26,9.27,-0.05,-0.0,-0.01,13380
2025-07-14T17:24:22.758,4,0.61,-0.28,9.31,-0.05,-0.0,-0.01,13392
2025-07-14T17:24:22.768,4,0.61,-0.25,9.28,-0.05,-0.0,-0.01,13404
2025-07-14T17:24:22.778,4,0.6,-0.2,9.31,-0.05,-0.0,-0.01,13416
2025-07-14T17:24:22.798,4,0.6,-0.17,9.32,-0.05,-0.0,-0.01,13428
2025-07-14T17:24:22.808,4,0.59,-0.17,9.23,-0.05,-0.0,-0.01,13440
2025-07-14T17:24:22.818,4,0.63,-0.19,9.26,-0.05,-0.01,-0.01,13452
2025-07-14T17:24:22.828,4,0.64,-0.22,9.28,-0.05,-0.0,-0.01,13464
2025-07-14T17:24:22.838,4,0.65,-0.24,9.25,-0.05,-0.0,-0.01,13476
2025-07-14T17:24:22.858,4,0.64,-0.26,9.24,-0.05,-0.0,-0.01,13488
2025-07-14T17:24:22.868,4,0.63,-0.27,9.3,-0.05,-0.0,-0.01,13500
2025-07-14T17:24:22.878,4,0.62,-0.27,9.28,-0.05,-0.0,-0.01,13512
2025-07-14T17:24:22.888,4,0.59,-0.24,9.29,-0.05,-0.0,-0.01,13524
2025-07-14T17:24:22.898,4,0.58,-0.2,9.32,-0.05,-0.0,-0.01,13536
2025-07-14T17:24:22.918,4,0.58,-0.19,9.3,-0.05,-0.0,-0.01,13548
2025-07-14T17:24:22.928,4,0.58,-0.18,9.29,-0.05,-0.0,-0.01,13560
2025-07-14T17:24:22.938,4,0.62,-0.2,9.29,-0.05,-0.01,-0.01,13572
2025-07-14T17:24:22.948,4,0.64,-0.21,9.27,-0.05,-0.0,-0.01,13584
2025-07-14T17:24:22.958,4,0.61,-0.23,9.32,-0.05,-0.0,-0.01,13596
2025-07-14T17:24:22.978,4,0.62,-0.25,9.28,-0.05,-0.0,-0.01,13608
2025-07-14T17:24:22.988,4,0.63,-0.26,9.27,-0.05,-0.0,-0.01,13620
2025-07-14T17:24:22.998,4,0.61,-0.24,9.29,-0.05,-0.0,-0.01,13632
2025-07-14T17:24:23.008,4,0.6,-0.21,9.29,-0.05,-0.0,-0.01,13644
2025-07-14T17:24:23.018,4,0.61,-0.21,9.26,-0.05,-0.0,-0.01,13656
2025-07-14T17:24:23.038,4,0.61,-0.2,9.32,-0.05,-0.01,-0.01,13668
2025-07-14T17:24:23.048,4,0.54,-0.2,9.33,-0.05,-0.02,-0.01,13680
2025-07-14T17:24:23.058,4,0.73,-0.22,9.14,-0.05,0.0,-0.02,13692
2025-07-14T17:24:23.068,4,0.31,0.02,9.31,-0.05,-0.01,-0.16,13704
2025-07-14T17:24:23.078,4,0.07,-0.02,9.31,-0.05,0.02,-0.3,13716
2025-07-14T17:24:23.098,4,-0.13,0.21,9.31,-0.05,0.01,-0.32,13728
2025-07-14T17:24:23.108,4,-0.2,0.18,9.26,-0.05,0.02,-0.19,13740
2025-07-14T17:24:23.118,4,-0.23,-0.12,9.29,-0.04,0.0,0.04,13752
2025-07-14T17:24:23.128,4,0.31,-0.31,9.28,-0.04,0.03,0.22,13764
2025-07-14T17:24:23.138,4,0.66,-0.2,9.28,-0.03,0.12,0.48,13776
2025-07-14T17:24:23.158,4,2.21,-0.37,9.3,-0.03,0.16,0.5,13788
2025-07-14T17:24:23.168,4,2.02,-0.29,9.23,-0.04,0.1,0.34,13800
2025-07-14T17:24:23.178,4,1.1,-0.84,9.3,-0.04,0.09,0.12,13812
2025-07-14T17:24:23.188,4,0.77,-0.49,9.37,-0.05,0.21,0.01,13824
2025-07-14T17:24:23.198,4,0.87,-0.29,9.49,-0.05,0.4,-0.03,13836
2025-07-14T17:24:23.218,4,1.92,-0.38,9.62,-0.06,0.67,-0.15,13848
2025-07-14T17:24:23.228,4,1.45,0.09,9.47,-0.05,1.01,-0.3,13860
2025-07-14T17:24:23.238,4,0.4,-0.1,9.77,-0.04,1.27,-0.31,13872
2025-07-14T17:24:23.248,4,-0.34,-0.49,10.25,-0.07,1.79,-0.19,13884
2025-07-14T17:24:23.258,4,0.06,-0.27,10.12,-0.07,2.5,-0.06,13896
2025-07-14T17:24:23.278,4,-1.07,-0.01,9.7,-0.08,3.05,0.0,13908
2025-07-14T17:24:23.288,4,-1.81,0.29,9.31,-0.11,3.4,0.12,13920
2025-07-14T17:24:23.298,4,-1.9,0.28,8.82,-0.16,3.6,0.23,13932
2025-07-14T17:24:23.308,4,-1.29,-0.35,8.81,-0.19,3.53,0.22,13944
2025-07-14T17:24:23.318,4,-1.05,-0.59,8.8,-0.16,3.37,0.1,13956
2025-07-14T17:24:23.338,4,-1.52,-0.53,8.6,-0.1,3.15,-0.0,13968
2025-07-14T17:24:23.348,4,-2.54,-0.37,8.35,-0.05,2.93,-0.03,13980
2025-07-14T17:24:23.358,4,-3.11,-0.21,8.23,-0.0,2.71,-0.04,13992
2025-07-14T17:24:23.368,4,-3.46,-0.26,8.28,0.02,2.57,-0.03,14004
2025-07-14T17:24:23.378,4,-3.85,-0.13,8.29,-0.01,2.61,-0.02,14016
2025-07-14T17:24:23.398,4,-4.33,-0.11,7.92,-0.07,2.7,0.03,14028
2025-07-14T17:24:23.408,4,-4.2,-0.27,7.83,-0.1,2.64,0.07,14040
2025-07-14T17:24:23.418,4,-4.45,-0.19,7.52,-0.1,2.36,0.07,14052
2025-07-14T17:24:23.428,4,-4.95,-0.26,7.18,-0.09,1.92,0.03,14064
2025-07-14T17:24:23.438,4,-5.0,-0.43,7.37,-0.08,1.45,0.01,14076
2025-07-14T17:24:23.458,4,-5.13,-0.27,7.51,-0.07,1.37,0.0,14088
2025-07-14T17:24:23.468,4,-5.22,-0.37,7.38,-0.08,1.36,0.0,14100
2025-07-14T17:24:23.478,4,-5.33,-0.37,7.25,-0.1,1.35,0.01,14112
2025-07-14T17:24:23.488,4,-5.38,-0.33,7.26,-0.08,1.36,0.0,14124
2025-07-14T17:24:23.498,4,-5.56,-0.13,7.09,-0.07,1.37,-0.01,14136
2025-07-14T17:24:23.518,4,-5.92,-0.36,6.72,-0.06,1.25,-0.02,14148
2025-07-14T17:24:23.528,4,-5.93,-0.29,6.79,-0.06,1.17,-0.02,14160
2025-07-14T17:24:23.538,4,-6.07,-0.23,6.78,-0.09,1.27,0.0,14172
2025-07-14T17:24:23.548,4,-6.03,-0.34,6.75,-0.13,1.54,0.03,14184
2025-07-14T17:24:23.558,4,-6.1,-0.31,6.66,-0.14,1.7,0.04,14196
2025-07-14T17:24:23.578,4,-6.28,-0.35,6.4,-0.14,1.69,0.04,14208
2025-07-14T17:24:23.588,4,-6.4,-0.18,6.23,-0.13,1.59,0.03,14220
2025-07-14T17:24:23.598,4,-6.63,-0.26,6.09,-0.11,1.42,0.01,14232
2025-07-14T17:24:23.608,4,-6.69,-0.36,6.13,-0.11,1.36,-0.0,14244
2025-07-14T17:24:23.618,4,-6.74,-0.26,6.02,-0.11,1.47,0.0,14256
2025-07-14T17:24:23.638,4,-6.9,-0.34,5.73,-0.12,1.6,0.01,14268
2025-07-14T17:24:23.648,4,-7.0,-0.35,5.55,-0.12,1.54,0.01,14280
2025-07-14T17:24:23.658,4,-7.09,-0.39,5.62,-0.14,1.46,0.02,14292
2025-07-14T17:24:23.668,4,-7.28,-0.36,5.26,-0.15,1.4,0.03,14304
2025-07-14T17:24:23.678,4,-7.36,-0.35,5.14,-0.14,1.36,0.02,14316
2025-07-14T17:24:23.698,4,-7.46,-0.23,5.13,-0.14,1.41,0.02,14328
2025-07-14T17:24:23.708,4,-7.46,-0.28,4.99,-0.14,1.51,0.02,14340
2025-07-14T17:24:23.718,4,-7.63,-0.2,4.81,-0.14,1.56,0.01,14352
2025-07-14T17:24:23.728,4,-7.64,-0.29,4.67,-0.14,1.64,-0.0,14364
2025-07-14T17:24:23.738,4,-7.88,-0.27,4.27,-0.16,1.68,-0.0,14376
2025-07-14T17:24:23.758,4,-7.91,-0.26,4.15,-0.16,1.64,-0.0,14388
2025-07-14T17:24:23.768,4,-8.03,-0.23,4.08,-0.15,1.54,0.0,14400
2025-07-14T17:24:23.778,4,-8.23,-0.33,3.85,-0.16,1.37,0.03,14412
2025-07-14T17:24:23.788,4,-8.31,-0.41,3.69,-0.15,1.26,0.04,14424
2025-07-14T17:24:23.798,4,-8.38,-0.53,3.48,-0.14,1.18,0.02,14436
2025-07-14T17:24:23.818,4,-8.47,-0.37,3.39,-0.11,1.06,0.02,14448
2025-07-14T17:24:23.828,4,-8.47,-0.19,3.37,-0.09,0.96,0.02,14460
2025-07-14T17:24:23.838,4,-8.56,-0.22,3.31,-0.08,0.88,0.02,14472
2025-07-14T17:24:23.848,4,-8.59,-0.32,3.15,-0.07,0.82,0.01,14484
2025-07-14T17:24:23.858,4,-8.65,-0.24,3.01,-0.06,0.75,0.0,14496
2025-07-14T17:24:23.878,4,-8.68,-0.13,2.93,-0.05,0.68,-0.01,14508
2025-07-14T17:24:23.888,4,-8.72,-0.3,2.95,-0.04,0.61,-0.02,14520
2025-07-14T17:24:23.898,4,-8.71,-0.35,2.77,-0.02,0.54,-0.02,14532
2025-07-14T17:24:23.908,4,-8.79,-0.35,2.68,-0.01,0.42,-0.02,14544
2025-07-14T17:24:23.918,4,-8.68,-0.33,2.89,-0.03,0.31,-0.01,14556
2025-07-14T17:24:23.938,4,-8.6,-0.37,2.95,-0.04,0.34,-0.01,14568
2025-07-14T17:24:23.948,4,-8.78,-0.38,2.72,-0.03,0.29,0.0,14580
2025-07-14T17:24:23.958,4,-8.82,-0.37,2.68,-0.01,0.09,0.0,14592
2025-07-14T17:24:23.968,4,-8.75,-0.23,2.71,0.0,-0.02,0.01,14604
2025-07-14T17:24:23.978,4,-8.54,-0.19,3.03,0.05,-0.2,0.02,14616
2025-07-14T17:24:23.998,4,-8.42,-0.07,2.86,0.14,-0.14,0.1,14628
2025-07-14T17:24:24.008,4,-7.87,0.28,2.79,0.24,0.22,0.17,14640
2025-07-14T17:24:24.018,4,-8.55,-0.3,2.95,0.37,0.78,0.23,14652
2025-07-14T17:24:24.028,4,-9.06,-0.21,2.67,0.18,0.57,0.04,14664
2025-07-14T17:24:24.038,4,-8.62,-0.45,2.78,0.02,0.73,-0.0,14676
2025-07-14T17:24:24.058,4,-8.81,-0.26,2.66,-0.0,0.75,-0.02,14688
2025-07-14T17:24:24.068,4,-9.22,-0.17,2.27,0.03,0.49,-0.03,14700
2025-07-14T17:24:24.078,4,-9.08,-0.03,2.32,0.06,0.17,-0.05,14712
2025-07-14T17:24:24.088,4,-8.87,-0.22,2.03,0.06,0.08,-0.04,14724
2025-07-14T17:24:24.098,4,-8.83,-0.21,2.19,0.02,0.18,-0.03,14736
2025-07-14T17:24:24.118,4,-8.92,-0.2,2.21,-0.01,0.22,-0.02,14748
2025-07-14T17:24:24.128,4,-8.72,-0.18,2.22,-0.02,0.27,-0.02,14760
2025-07-14T17:24:24.138,4,-8.67,-0.18,2.49,-0.04,0.43,-0.01,14772
2025-07-14T17:24:24.148,4,-8.59,-0.19,2.55,-0.04,0.68,-0.01,14784
2025-07-14T17:24:24.158,4,-8.66,-0.21,2.41,-0.03,0.88,-0.01,14796
2025-07-14T17:24:24.178,4,-8.88,-0.19,2.12,-0.02,0.99,-0.02,14808
2025-07-14T17:24:24.188,4,-8.93,-0.19,2.08,0.0,0.97,-0.02,14820
2025-07-14T17:24:24.198,4,-9.05,-0.12,1.84,0.03,0.94,-0.03,14832
2025-07-14T17:24:24.208,4,-9.12,-0.15,1.73,0.05,0.85,-0.03,14844
2025-07-14T17:24:24.218,4,-9.17,-0.31,1.57,0.1,0.63,-0.05,14856
2025-07-14T17:24:24.238,4,-9.06,-0.27,1.54,0.13,0.45,-0.05,14868
2025-07-14T17:24:24.248,4,-9.19,-0.2,1.19,0.11,0.45,-0.05,14880
2025-07-14T17:24:24.258,4,-8.93,-0.42,1.68,0.14,0.51,-0.05,14892
2025-07-14T17:24:24.268,4,-8.97,-0.29,1.23,0.18,0.64,-0.06,14904
2025-07-14T17:24:24.278,4,-9.11,-0.1,1.04,0.18,0.72,-0.07,14916
2025-07-14T17:24:24.298,4,-9.19,-0.08,0.94,0.13,0.78,-0.04,14928
2025-07-14T17:24:24.308,4,-9.05,-0.22,1.29,0.11,0.83,-0.03,14940
2025-07-14T17:24:24.318,4,-9.14,-0.1,0.99,0.13,0.88,-0.04,14952
2025-07-14T17:24:24.328,4,-9.21,0.0,0.57,0.09,0.89,-0.03,14964
2025-07-14T17:24:24.338,4,-9.13,-0.26,0.68,0.06,0.91,-0.03,14976
2025-07-14T17:24:24.358,4,-9.2,-0.37,0.64,0.05,0.96,-0.03,14988
2025-07-14T17:24:24.368,4,-9.22,-0.39,0.57,0.07,1.05,-0.03,15000
2025-07-14T17:24:24.378,4,-9.39,-0.06,0.27,0.08,0.95,-0.03,15012
2025-07-14T17:24:24.388,4,-9.54,0.11,-0.28,0.06,0.77,-0.02,15024
2025-07-14T17:24:24.398,4,-9.32,0.14,-0.21,0.0,0.66,-0.01,15036
2025-07-14T17:24:24.418,4,-9.24,-0.07,0.02,-0.04,0.67,-0.01,15048
2025-07-14T17:24:24.428,4,-9.26,-0.1,-0.06,-0.06,0.71,-0.01,15060
2025-07-14T17:24:24.438,4,-9.29,-0.17,0.02,-0.07,0.74,-0.01,15072
2025-07-14T17:24:24.448,4,-9.35,-0.17,-0.18,-0.05,0.73,-0.01,15084
2025-07-14T17:24:24.458,4,-9.44,-0.19,-0.4,-0.04,0.65,-0.01,15096
2025-07-14T17:24:24.478,4,-9.41,-0.17,-0.53,-0.04,0.5,-0.01,15108
2025-07-14T17:24:24.488,4,-9.34,-0.17,-0.42,-0.05,0.42,-0.01,15120
2025-07-14T17:24:24.498,4,-9.27,-0.19,-0.37,-0.05,0.44,-0.01,15132
2025-07-14T17:24:24.508,4,-9.31,-0.16,-0.55,-0.07,0.49,-0.01,15144
2025-07-14T17:24:24.518,4,-9.5,-0.14,-0.79,-0.07,0.41,-0.01,15156
2025-07-14T17:24:24.538,4,-9.52,-0.13,-0.75,-0.06,0.22,-0.01,15168
2025-07-14T17:24:24.548,4,-9.38,-0.11,-0.63,-0.05,0.1,-0.01,15180
2025-07-14T17:24:24.558,4,-9.13,-0.14,-0.34,-0.06,0.19,-0.01,15192
2025-07-14T17:24:24.568,4,-9.0,-0.17,-0.27,-0.06,0.49,-0.01,15204
2025-07-14T17:24:24.578,4,-9.09,-0.31,-0.46,-0.06,0.81,-0.01,15216
2025-07-14T17:24:24.598,4,-9.41,-0.21,-1.4,-0.07,1.03,-0.01,15228
2025-07-14T17:24:24.608,4,-9.69,0.0,-1.1,-0.09,0.74,-0.01,15240
2025-07-14T17:24:24.618,4,-9.62,-0.15,-1.36,-0.07,0.39,-0.01,15252
2025-07-14T17:24:24.628,4,-9.47,-0.13,-1.1,-0.06,0.13,-0.01,15264
2025-07-14T17:24:24.638,4,-9.31,-0.13,-0.98,-0.04,0.06,-0.01,15276
2025-07-14T17:24:24.658,4,-9.29,-0.11,-1.02,-0.03,0.1,-0.01,15288
2025-07-14T17:24:24.668,4,-9.39,-0.1,-1.22,-0.03,0.1,-0.01,15300
2025-07-14T17:24:24.678,4,-9.46,-0.13,-1.24,-0.03,0.01,-0.01,15312
2025-07-14T17:24:24.688,4,-9.37,-0.16,-1.19,-0.04,-0.06,-0.01,15324
2025-07-14T17:24:24.698,4,-9.26,-0.18,-1.04,-0.04,-0.06,-0.01,15336
2025-07-14T17:24:24.718,4,-9.23,-0.18,-0.97,-0.04,0.02,-0.01,15348
2025-07-14T17:24:24.728,4,-9.33,-0.19,-1.09,-0.04,0.07,-0.01,15360
2025-07-14T17:24:24.738,4,-9.39,-0.18,-1.13,-0.04,0.04,-0.01,15372
2025-07-14T17:24:24.748,4,-9.42,-0.16,-1.19,-0.03,-0.05,-0.01,15384
2025-07-14T17:24:24.758,4,-9.46,-0.14,-1.24,-0.03,-0.16,-0.01,15396
2025-07-14T17:24:24.778,4,-9.43,-0.12,-1.24,-0.04,-0.26,-0.01,15408
2025-07-14T17:24:24.788,4,-9.44,-0.12,-1.16,-0.04,-0.35,-0.01,15420
2025-07-14T17:24:24.798,4,-9.46,-0.15,-1.08,-0.03,-0.45,-0.01,15432
2025-07-14T17:24:24.808,4,-9.45,-0.16,-1.07,-0.03,-0.56,-0.01,15444
2025-07-14T17:24:24.818,4,-9.47,-0.19,-1.0,-0.03,-0.68,-0.01,15456
2025-07-14T17:24:24.838,4,-9.47,-0.19,-0.93,-0.03,-0.8,-0.01,15468
2025-07-14T17:24:24.848,4,-9.43,-0.19,-0.86,-0.04,-0.94,-0.01,15480
2025-07-14T17:24:24.858,4,-9.51,-0.17,-0.8,-0.04,-1.11,-0.01,15492
2025-07-14T17:24:24.868,4,-9.56,-0.15,-0.79,-0.03,-1.37,-0.01,15504
2025-07-14T17:24:24.878,4,-9.58,-0.11,-0.67,-0.04,-1.67,-0.01,15516
2025-07-14T17:24:24.898,4,-9.54,-0.09,-0.57,-0.06,-1.96,-0.01,15528
2025-07-14T17:24:24.908,4,-9.66,-0.03,-0.23,-0.13,-2.39,-0.01,15540
2025-07-14T17:24:24.918,4,-9.54,-0.08,0.07,-0.19,-2.85,0.0,15552
2025-07-14T17:24:24.928,4,-9.2,-0.29,0.5,-0.16,-3.13,0.01,15564
2025-07-14T17:24:24.938,4,-9.14,-0.28,1.14,-0.09,-3.22,-0.0,15576
2025-07-14T17:24:24.958,4,-8.97,-0.26,1.54,-0.05,-3.31,-0.01,15588
2025-07-14T17:24:24.968,4,-8.8,-0.23,1.91,-0.03,-3.41,-0.01,15600
2025-07-14T17:24:24.978,4,-8.46,-0.18,2.63,-0.01,-3.46,-0.02,15612
2025-07-14T17:24:24.988,4,-8.14,-0.11,2.93,-0.03,-3.28,-0.02,15624
2025-07-14T17:24:24.998,4,-8.03,-0.29,3.58,-0.07,-2.9,-0.01,15636
2025-07-14T17:24:25.018,4,-8.12,-0.24,3.71,-0.17,-2.84,0.04,15648
2025-07-14T17:24:25.028,4,-8.08,-0.17,3.84,-0.21,-2.8,0.07,15660
2025-07-14T17:24:25.038,4,-7.91,-0.22,4.03,-0.18,-2.76,0.06,15672
2025-07-14T17:24:25.048,4,-7.74,-0.15,4.32,-0.13,-2.69,0.04,15684
2025-07-14T17:24:25.058,4,-7.67,-0.15,4.57,-0.09,-2.7,0.02,15696
2025-07-14T17:24:25.078,4,-7.44,-0.13,4.87,-0.07,-2.77,0.01,15708
2025-07-14T17:24:25.088,4,-7.22,-0.17,5.2,-0.09,-2.81,0.02,15720
2025-07-14T17:24:25.098,4,-7.04,-0.14,5.44,-0.12,-2.84,0.05,15732
2025-07-14T17:24:25.108,4,-6.72,-0.05,5.8,-0.17,-2.83,0.09,15744
2025-07-14T17:24:25.118,4,-6.16,-0.41,6.4,-0.18,-2.62,0.11,15756
2025-07-14T17:24:25.138,4,-6.38,-0.3,6.23,-0.18,-2.48,0.11,15768
2025-07-14T17:24:25.148,4,-6.33,-0.12,6.29,-0.19,-2.59,0.13,15780
2025-07-14T17:24:25.158,4,-6.02,-0.23,6.48,-0.16,-2.76,0.12,15792
2025-07-14T17:24:25.168,4,-5.68,-0.39,6.84,-0.12,-2.83,0.09,15804
2025-07-14T17:24:25.178,4,-4.81,-0.75,7.42,-0.08,-3.01,0.04,15816
2025-07-14T17:24:25.198,4,-4.12,-0.68,7.77,-0.0,-3.27,-0.06,15828
2025-07-14T17:24:25.208,4,-4.54,-0.2,7.75,0.05,-3.2,-0.14,15840
2025-07-14T17:24:25.218,4,-4.73,-0.0,7.85,0.04,-2.79,-0.14,15852
2025-07-14T17:24:25.228,4,-2.52,-0.03,8.76,0.05,-2.55,-0.2,15864
2025-07-14T17:24:25.238,4,-2.4,0.1,8.77,0.14,-2.72,-0.37,15876
2025-07-14T17:24:25.258,4,-3.28,0.0,8.29,0.17,-2.82,-0.47,15888
2025-07-14T17:24:25.268,4,-5.91,-0.17,7.35,0.1,-2.71,-0.3,15900
2025-07-14T17:24:25.278,4,-4.54,-0.2,8.01,0.03,-2.55,-0.14,15912
2025-07-14T17:24:25.288,4,-3.15,-0.29,8.62,-0.01,-2.37,-0.07,15924
2025-07-14T17:24:25.298,4,-2.67,-0.15,8.81,-0.03,-2.16,-0.03,15936
2025-07-14T17:24:25.318,4,-2.35,-0.18,8.88,-0.04,-2.03,-0.02,15948
2025-07-14T17:24:25.328,4,-1.91,-0.16,8.99,-0.04,-1.96,-0.02,15960
2025-07-14T17:24:25.338,4,-1.14,-0.11,9.08,-0.03,-1.92,-0.07,15972
2025-07-14T17:24:25.348,4,-1.34,-0.21,8.83,-0.02,-2.07,-0.14,15984
2025-07-14T17:24:25.358,4,-0.96,-0.6,8.89,-0.02,-2.27,-0.19,15996
2025-07-14T17:24:25.378,4,-0.92,-0.5,8.85,-0.02,-2.44,-0.21,16008
2025-07-14T17:24:25.388,4,-1.15,-0.26,9.03,-0.03,-2.56,-0.17,16020
2025-07-14T17:24:25.398,4,-1.23,-0.11,9.38,-0.03,-2.44,-0.09,16032
2025-07-14T17:24:25.408,4,-1.06,0.05,9.57,-0.03,-2.18,-0.01,16044
2025-07-14T17:24:25.418,4,-0.26,-0.09,9.54,-0.04,-2.0,-0.0,16056
2025-07-14T17:24:25.438,4,0.07,-0.16,9.47,-0.04,-1.97,-0.01,16068
2025-07-14T17:24:25.448,4,0.76,-0.2,9.94,-0.03,-1.88,-0.01,16080
2025-07-14T17:24:25.458,4,2.2,-0.17,10.07,-0.05,-0.81,-0.01,16092
2025-07-14T17:24:25.468,4,0.79,-0.21,9.48,-0.05,-0.22,-0.01,16104
2025-07-14T17:24:25.478,4,0.56,-0.26,9.24,-0.05,-0.11,-0.02,16116
2025-07-14T17:24:25.498,4,0.58,-0.2,9.36,-0.05,-0.1,-0.02,16128
2025-07-14T17:24:25.508,4,0.63,-0.21,9.37,-0.05,-0.11,-0.01,16140
2025-07-14T17:24:25.518,4,0.61,-0.26,9.24,-0.05,-0.1,-0.02,16152
2025-07-14T17:24:25.528,4,0.63,-0.22,9.28,-0.05,-0.08,-0.04,16164
2025-07-14T17:24:25.538,4,0.73,-0.2,9.36,-0.05,-0.05,-0.02,16176
2025-07-14T17:24:25.558,4,0.75,-0.22,9.21,-0.05,-0.03,-0.01,16188
2025-07-14T17:24:25.568,4,0.69,-0.21,9.26,-0.04,0.05,-0.01,16200
2025-07-14T17:24:25.578,4,0.45,-0.21,9.4,-0.04,0.04,-0.01,16212
2025-07-14T17:24:25.588,4,0.69,-0.22,9.21,-0.05,0.01,-0.01,16224
2025-07-14T17:24:25.598,4,0.64,-0.21,9.28,-0.04,0.03,-0.01,16236
2025-07-14T17:24:25.618,4,0.57,-0.22,9.29,-0.05,-0.0,-0.01,16248
2025-07-14T17:24:25.628,4,0.63,-0.24,9.27,-0.05,0.0,-0.01,16260
2025-07-14T17:24:25.638,4,0.62,-0.23,9.29,-0.05,-0.0,-0.01,16272
2025-07-14T17:24:25.648,4,0.63,-0.23,9.3,-0.05,-0.0,-0.01,16284
2025-07-14T17:24:25.658,4,0.63,-0.22,9.26,-0.05,-0.0,-0.01,16296
2025-07-14T17:24:25.678,4,0.61,-0.2,9.28,-0.05,-0.0,-0.01,16308
2025-07-14T17:24:25.688,4,0.61,-0.2,9.28,-0.05,-0.0,-0.01,16320
2025-07-14T17:24:25.698,4,0.6,-0.21,9.28,-0.05,-0.0,-0.01,16332
2025-07-14T17:24:25.708,4,0.58,-0.21,9.33,-0.05,-0.0,-0.01,16344
2025-07-14T17:24:25.718,4,0.61,-0.23,9.28,-0.05,-0.0,-0.01,16356
2025-07-14T17:24:25.738,4,0.61,-0.23,9.26,-0.05,-0.01,-0.01,16368
2025-07-14T17:24:25.748,4,0.62,-0.22,9.26,-0.05,-0.0,-0.01,16380
2025-07-14T17:24:25.758,4,0.63,-0.22,9.24,-0.05,-0.0,-0.01,16392
2025-07-14T17:24:25.768,4,0.62,-0.21,9.29,-0.05,-0.0,-0.01,16404
2025-07-14T17:24:25.778,4,0.62,-0.18,9.32,-0.05,-0.0,-0.01,16416
2025-07-14T17:24:25.798,4,0.61,-0.19,9.28,-0.05,-0.0,-0.01,16428
2025-07-14T17:24:25.808,4,0.61,-0.2,9.29,-0.05,-0.0,-0.01,16440
2025-07-14T17:24:25.818,4,0.61,-0.23,9.3,-0.05,-0.0,-0.01,16452
2025-07-14T17:24:25.828,4,0.61,-0.25,9.29,-0.05,-0.0,-0.01,16464
2025-07-14T17:24:25.838,4,0.61,-0.22,9.29,-0.05,-0.0,-0.01,16476
2025-07-14T17:24:25.858,4,0.61,-0.24,9.26,-0.05,-0.0,-0.01,16488
2025-07-14T17:24:25.868,4,0.62,-0.24,9.25,-0.05,-0.0,-0.01,16500
2025-07-14T17:24:25.878,4,0.62,-0.22,9.24,-0.05,-0.0,-0.01,16512
2025-07-14T17:24:25.888,4,0.6,-0.22,9.27,-0.05,-0.0,-0.01,16524
2025-07-14T17:24:25.898,4,0.62,-0.2,9.27,-0.05,-0.0,-0.01,16536
2025-07-14T17:24:25.918,4,0.59,-0.2,9.27,-0.05,-0.0,-0.01,16548
2025-07-14T17:24:25.928,4,0.58,-0.2,9.29,-0.05,-0.0,-0.01,16560
2025-07-14T17:24:25.938,4,0.6,-0.22,9.24,-0.05,-0.0,-0.01,16572
2025-07-14T17:24:25.948,4,0.6,-0.23,9.27,-0.05,-0.0,-0.01,16584
2025-07-14T17:24:25.958,4,0.6,-0.25,9.31,-0.05,-0.0,-0.01,16596
2025-07-14T17:24:25.978,4,0.61,-0.23,9.29,-0.05,-0.0,-0.01,16608
2025-07-14T17:24:25.988,4,0.61,-0.22,9.28,-0.05,-0.0,-0.01,16620
2025-07-14T17:24:25.998,4,0.62,-0.2,9.29,-0.05,-0.0,-0.01,16632
2025-07-14T17:24:26.008,4,0.62,-0.21,9.27,-0.05,-0.0,-0.01,16644
2025-07-14T17:24:26.018,4,0.62,-0.19,9.28,-0.05,-0.0,-0.01,16656
2025-07-14T17:24:26.038,4,0.61,-0.21,9.3,-0.05,-0.0,-0.01,16668
2025-07-14T17:24:26.048,4,0.61,-0.21,9.28,-0.05,-0.0,-0.01,16680
2025-07-14T17:24:26.058,4,0.6,-0.22,9.32,-0.05,0.0,-0.01,16692
2025-07-14T17:24:26.068,4,0.58,-0.23,9.3,-0.05,0.0,-0.01,16704
2025-07-14T17:24:26.078,4,0.61,-0.24,9.26,-0.05,-0.0,-0.01,16716
2025-07-14T17:24:26.098,4,0.61,-0.23,9.27,-0.05,-0.0,-0.01,16728
2025-07-14T17:24:26.108,4,0.6,-0.24,9.3,-0.05,-0.0,-0.01,16740
2025-07-14T17:24:26.118,4,0.61,-0.22,9.31,-0.05,-0.0,-0.01,16752
2025-07-14T17:24:26.128,4,0.61,-0.22,9.26,-0.05,-0.0,-0.01,16764
2025-07-14T17:24:26.138,4,0.61,-0.2,9.24,-0.05,-0.0,-0.01,16776
2025-07-14T17:24:26.158,4,0.62,-0.21,9.28,-0.05,-0.0,-0.01,16788
2025-07-14T17:24:26.168,4,0.62,-0.23,9.3,-0.05,-0.0,-0.01,16800
2025-07-14T17:24:26.178,4,0.63,-0.24,9.29,-0.05,-0.0,-0.01,16812
2025-07-14T17:24:26.188,4,0.6,-0.24,9.29,-0.05,-0.0,-0.01,16824
2025-07-14T17:24:26.198,4,0.61,-0.24,9.31,-0.05,-0.0,-0.01,16836
2025-07-14T17:24:26.218,4,0.62,-0.23,9.31,-0.05,0.0,-0.01,16848
2025-07-14T17:24:26.228,4,0.59,-0.22,9.29,-0.05,0.0,-0.01,16860
2025-07-14T17:24:26.238,4,0.57,-0.21,9.28,-0.05,-0.0,-0.01,16872
2025-07-14T17:24:26.248,4,0.6,-0.19,9.29,-0.05,-0.0,-0.01,16884
2025-07-14T17:24:26.258,4,0.57,-0.2,9.31,-0.05,-0.0,-0.01,16896
2025-07-14T17:24:26.278,4,0.57,-0.22,9.27,-0.05,-0.0,-0.01,16908
2025-07-14T17:24:26.288,4,0.6,-0.23,9.31,-0.05,-0.01,-0.01,16920
2025-07-14T17:24:26.298,4,0.64,-0.25,9.26,-0.05,-0.01,-0.01,16932
2025-07-14T17:24:26.308,4,0.65,-0.27,9.18,-0.05,-0.0,-0.01,16944
2025-07-14T17:24:26.318,4,0.64,-0.26,9.28,-0.05,-0.0,-0.01,16956
2025-07-14T17:24:26.338,4,0.62,-0.25,9.33,-0.05,-0.0,-0.01,16968
2025-07-14T17:24:26.348,4,0.58,-0.2,9.28,-0.05,-0.0,-0.01,16980
2025-07-14T17:24:26.358,4,0.57,-0.19,9.36,-0.05,-0.0,-0.01,16992
2025-07-14T17:24:26.368,4,0.56,-0.17,9.29,-0.05,-0.0,-0.01,17004
2025-07-14T17:24:26.378,4,0.59,-0.18,9.26,-0.05,-0.01,-0.01,17016
2025-07-14T17:24:26.398,4,0.62,-0.2,9.28,-0.05,-0.01,-0.01,17028
2025-07-14T17:24:26.408,4,0.62,-0.21,9.26,-0.05,-0.0,-0.01,17040
2025-07-14T17:24:26.418,4,0.62,-0.24,9.27,-0.05,-0.0,-0.01,17052
2025-07-14T17:24:26.428,4,0.65,-0.26,9.27,-0.05,-0.0,-0.01,17064
2025-07-14T17:24:26.438,4,0.62,-0.26,9.3,-0.05,-0.0,-0.01,17076
2025-07-14T17:24:26.458,4,0.6,-0.26,9.28,-0.05,-0.0,-0.01,17088
2025-07-14T17:24:26.468,4,0.59,-0.2,9.33,-0.05,-0.0,-0.01,17100
2025-07-14T17:24:26.478,4,0.56,-0.16,9.3,-0.05,-0.0,-0.01,17112
2025-07-14T17:24:26.488,4,0.56,-0.18,9.31,-0.05,-0.0,-0.01,17124
2025-07-14T17:24:26.498,4,0.59,-0.2,9.31,-0.05,-0.0,-0.01,17136
2025-07-14T17:24:26.518,4,0.61,-0.24,9.26,-0.05,-0.0,-0.01,17148
2025-07-14T17:24:26.528,4,0.66,-0.24,9.26,-0.05,-0.0,-0.01,17160
2025-07-14T17:24:26.538,4,0.65,-0.26,9.23,-0.05,-0.0,-0.01,17172
2025-07-14T17:24:26.548,4,0.63,-0.27,9.27,-0.05,0.0,-0.01,17184
2025-07-14T17:24:26.558,4,0.61,-0.25,9.31,-0.04,0.0,-0.01,17196
2025-07-14T17:24:26.578,4,0.59,-0.19,9.33,-0.05,0.0,-0.01,17208
2025-07-14T17:24:26.588,4,0.56,-0.19,9.28,-0.05,0.0,-0.01,17220
2025-07-14T17:24:26.598,4,0.56,-0.2,9.29,-0.05,-0.0,-0.01,17232
2025-07-14T17:24:26.608,4,0.57,-0.2,9.34,-0.05,-0.0,-0.01,17244
2025-07-14T17:24:26.618,4,0.61,-0.21,9.27,-0.05,-0.0,-0.01,17256
2025-07-14T17:24:26.638,4,0.62,-0.23,9.25,-0.05,-0.0,-0.01,17268
2025-07-14T17:24:26.648,4,0.62,-0.23,9.28,-0.05,-0.0,-0.01,17280
2025-07-14T17:24:26.658,4,0.62,-0.23,9.26,-0.05,-0.0,-0.01,17292
2025-07-14T17:24:26.668,4,0.61,-0.24,9.26,-0.05,-0.0,-0.01,17304
2025-07-14T17:24:26.678,4,0.58,-0.22,9.27,-0.05,-0.0,-0.01,17316
2025-07-14T17:24:26.698,4,0.57,-0.21,9.27,-0.05,-0.0,-0.01,17328
2025-07-14T17:24:26.708,4,0.57,-0.18,9.29,-0.05,-0.0,-0.01,17340
2025-07-14T17:24:26.718,4,0.59,-0.19,9.31,-0.05,-0.01,-0.01,17352
2025-07-14T17:24:26.728,4,0.62,-0.22,9.25,-0.05,-0.01,-0.01,17364
2025-07-14T17:24:26.738,4,0.62,-0.23,9.3,-0.05,-0.0,-0.01,17376
2025-07-14T17:24:26.758,4,0.63,-0.25,9.28,-0.05,-0.0,-0.01,17388
2025-07-14T17:24:26.768,4,0.64,-0.24,9.28,-0.05,-0.0,-0.01,17400
2025-07-14T17:24:26.778,4,0.63,-0.24,9.28,-0.05,-0.0,-0.01,17412
2025-07-14T17:24:26.788,4,0.6,-0.23,9.29,-0.05,-0.0,-0.01,17424
2025-07-14T17:24:26.798,4,0.59,-0.2,9.29,-0.05,-0.0,-0.01,17436
2025-07-14T17:24:26.818,4,0.57,-0.19,9.29,-0.05,-0.0,-0.01,17448
2025-07-14T17:24:26.828,4,0.58,-0.2,9.31,-0.05,-0.0,-0.01,17460
2025-07-14T17:24:26.838,4,0.59,-0.22,9.28,-0.05,-0.0,-0.01,17472
2025-07-14T17:24:26.848,4,0.59,-0.23,9.27,-0.05,-0.0,-0.01,17484
2025-07-14T17:24:26.858,4,0.61,-0.24,9.28,-0.05,-0.0,-0.01,17496
2025-07-14T17:24:26.878,4,0.61,-0.24,9.33,-0.05,-0.0,-0.01,17508
2025-07-14T17:24:26.888,4,0.6,-0.24,9.29,-0.05,-0.0,-0.01,17520
2025-07-14T17:24:26.898,4,0.62,-0.22,9.25,-0.05,-0.0,-0.01,17532
2025-07-14T17:24:26.908,4,0.61,-0.2,9.29,-0.05,-0.0,-0.01,17544
2025-07-14T17:24:26.918,4,0.61,-0.17,9.31,-0.05,-0.0,-0.01,17556
2025-07-14T17:24:26.938,4,0.58,-0.19,9.3,-0.05,-0.0,-0.01,17568
2025-07-14T17:24:26.948,4,0.58,-0.23,9.31,-0.05,-0.0,-0.01,17580
2025-07-14T17:24:26.958,4,0.6,-0.23,9.26,-0.05,-0.01,-0.01,17592
2025-07-14T17:24:26.968,4,0.59,-0.22,9.27,-0.05,-0.01,-0.01,17604
2025-07-14T17:24:26.978,4,0.61,-0.23,9.29,-0.05,-0.0,-0.01,17616
2025-07-14T17:24:26.998,4,0.62,-0.23,9.27,-0.05,-0.0,-0.01,17628
2025-07-14T17:24:27.008,4,0.63,-0.21,9.27,-0.05,-0.0,-0.01,17640
2025-07-14T17:24:27.018,4,0.62,-0.21,9.29,-0.05,-0.0,-0.01,17652
2025-07-14T17:24:27.028,4,0.59,-0.21,9.29,-0.05,-0.0,-0.01,17664
2025-07-14T17:24:27.038,4,0.59,-0.21,9.27,-0.05,-0.0,-0.01,17676
2025-07-14T17:24:27.058,4,0.6,-0.21,9.31,-0.05,-0.0,-0.01,17688
2025-07-14T17:24:27.068,4,0.59,-0.2,9.32,-0.05,-0.0,-0.01,17700
2025-07-14T17:24:27.078,4,0.59,-0.21,9.29,-0.05,-0.0,-0.01,17712
2025-07-14T17:24:27.088,4,0.6,-0.23,9.31,-0.05,-0.0,-0.01,17724
2025-07-14T17:24:27.098,4,0.63,-0.24,9.27,-0.05,-0.0,-0.01,17736
2025-07-14T17:24:27.118,4,0.6,-0.22,9.31,-0.05,-0.0,-0.01,17748
2025-07-14T17:24:27.128,4,0.62,-0.22,9.27,-0.05,-0.0,-0.01,17760
2025-07-14T17:24:27.138,4,0.59,-0.23,9.28,-0.05,-0.0,-0.01,17772
2025-07-14T17:24:27.148,4,0.58,-0.22,9.31,-0.05,-0.01,-0.01,17784
2025-07-14T17:24:27.158,4,0.57,-0.2,9.31,-0.05,-0.01,-0.01,17796
2025-07-14T17:24:27.178,4,0.59,-0.19,9.28,-0.05,-0.01,-0.01,17808
2025-07-14T17:24:27.188,4,0.61,-0.21,9.29,-0.05,-0.01,-0.01,17820
2025-07-14T17:24:27.198,4,0.61,-0.23,9.29,-0.05,-0.01,-0.01,17832
2025-07-14T17:24:27.208,4,0.63,-0.24,9.29,-0.05,-0.01,-0.01,17844
2025-07-14T17:24:27.218,4,0.6,-0.23,9.28,-0.05,-0.01,-0.01,17856
2025-07-14T17:24:27.238,4,0.59,-0.23,9.3,-0.05,-0.01,-0.01,17868
2025-07-14T17:24:27.248,4,0.6,-0.22,9.28,-0.05,-0.01,-0.01,17880
2025-07-14T17:24:27.258,4,0.6,-0.22,9.3,-0.05,-0.01,-0.01,17892
2025-07-14T17:24:27.268,4,0.63,-0.2,9.29,-0.05,-0.01,-0.01,17904
2025-07-14T17:24:27.278,4,0.61,-0.21,9.27,-0.05,-0.01,-0.01,17916
2025-07-14T17:24:27.298,4,0.6,-0.2,9.27,-0.05,0.01,-0.01,17928
2025-07-14T17:24:27.308,4,0.63,-0.21,9.28,-0.05,-0.01,-0.01,17940
2025-07-14T17:24:27.318,4,0.56,-0.23,9.29,-0.05,-0.0,-0.01,17952
2025-07-14T17:24:27.328,4,0.62,-0.24,9.32,-0.05,-0.0,-0.01,17964
2025-07-14T17:24:27.338,4,0.62,-0.25,9.14,-0.05,-0.01,-0.01,17976
2025-07-14T17:24:27.358,4,0.61,-0.24,9.24,-0.05,-0.0,-0.01,17988
2025-07-14T17:24:27.368,4,0.6,-0.22,9.37,-0.05,-0.0,-0.01,18000
2025-07-14T17:24:27.378,4,0.61,-0.2,9.22,-0.05,-0.0,-0.01,18012
2025-07-14T17:24:27.388,4,0.61,-0.19,9.28,-0.05,-0.0,-0.01,18024
2025-07-14T17:24:27.398,4,0.61,-0.19,9.34,-0.05,-0.01,-0.01,18036
2025-07-14T17:24:27.418,4,0.61,-0.22,9.25,-0.05,-0.0,-0.01,18048
2025-07-14T17:24:27.428,4,0.62,-0.23,9.26,-0.05,-0.0,-0.01,18060
2025-07-14T17:24:27.438,4,0.63,-0.23,9.29,-0.05,-0.0,-0.01,18072
2025-07-14T17:24:27.448,4,0.62,-0.23,9.3,-0.05,-0.0,-0.01,18084
2025-07-14T17:24:27.458,4,0.62,-0.25,9.28,-0.05,-0.0,-0.01,18096
2025-07-14T17:24:27.478,4,0.59,-0.24,9.29,-0.05,-0.0,-0.01,18108
2025-07-14T17:24:27.488,4,0.59,-0.21,9.3,-0.05,-0.0,-0.01,18120
2025-07-14T17:24:27.498,4,0.59,-0.19,9.3,-0.05,-0.0,-0.01,18132
2025-07-14T17:24:27.508,4,0.61,-0.2,9.26,-0.05,-0.0,-0.01,18144
2025-07-14T17:24:27.518,4,0.62,-0.2,9.29,-0.05,-0.0,-0.01,18156
2025-07-14T17:24:27.538,4,0.61,-0.23,9.31,-0.05,-0.0,-0.01,18168
2025-07-14T17:24:27.548,4,0.63,-0.23,9.29,-0.05,-0.0,-0.01,18180
2025-07-14T17:24:27.558,4,0.61,-0.26,9.33,-0.05,-0.0,-0.01,18192
2025-07-14T17:24:27.568,4,0.61,-0.26,9.31,-0.05,-0.0,-0.01,18204
2025-07-14T17:24:27.578,4,0.59,-0.24,9.29,-0.05,-0.0,-0.01,18216
2025-07-14T17:24:27.598,4,0.59,-0.24,9.29,-0.05,-0.0,-0.01,18228
2025-07-14T17:24:27.608,4,0.62,-0.21,9.32,-0.05,-0.0,-0.01,18240
2025-07-14T17:24:27.618,4,0.63,-0.19,9.3,-0.05,-0.0,-0.01,18252
2025-07-14T17:24:27.628,4,0.62,-0.19,9.24,-0.05,-0.0,-0.01,18264
2025-07-14T17:24:27.638,4,0.61,-0.23,9.3,-0.05,-0.0,-0.01,18276
2025-07-14T17:24:27.658,4,0.63,-0.22,9.33,-0.05,-0.0,-0.01,18288
2025-07-14T17:24:27.668,4,0.61,-0.23,9.23,-0.05,-0.0,-0.01,18300
2025-07-14T17:24:27.678,4,0.6,-0.23,9.3,-0.05,-0.0,-0.01,18312
2025-07-14T17:24:27.688,4,0.61,-0.22,9.33,-0.05,-0.0,-0.01,18324
2025-07-14T17:24:27.698,4,0.6,-0.24,9.25,-0.05,-0.0,-0.01,18336
